UUID,iqrAccX,iqrAccY,iqrAccZ,iqrAccXYZ,meanAccX,meanAccY,meanAccZ,meanAccXYZ, covarianceAccXY, covarianceAccXZ, covarianceAccYZ,pressureDerivative, pressureIQR, iqrGyroX, iqrGyroY, iqrGyroZ, iqrGyroMagnitude, meanGyroX, meanGyroY, meanGyroZ, meanGyroMagnitude, covarianceGyroXY, covarianceGyroXZ, covarianceGyroYZ, class, timestamp 
903d185fccf839df,-0.5863654767941088,-0.5088321596189682,-0.6499007225595722,-0.5111741024881244,-1.3418732356558083,-1.2226094304167083,1.6732239011885897,-1.3640368495696469,-0.061212601280811095,-0.5434818223164903,0.15091550883535965,-0.33454082132047996,-0.7847767658199644,-1.0159785932775955,-1.1212853060748147,-0.9788311295697469,-1.266948927246118,-1.0450584506614335,-1.2012355941299149,-0.9598771165167883,-1.1638125184757988,-0.47565781930883144,-0.6446934447990615,-0.5500035708546874,undefined,1491900855840
903d185fccf839df,-0.9065348678569876,-0.9097638709837532,-0.6428832389751439,-0.640218494548052,-1.5336059697249884,-1.4306737162252412,1.7781080511177265,-1.2032744332028116,-0.18752510488554777,-0.7463295529724592,0.08149951491545147,-0.38188008635783,-0.4823209113190731,-0.9687610664886536,-1.1139168852461656,-0.9060892400774139,-1.1021961501908113,-0.9163888716485218,-1.14175395887602,-0.7845658219765941,-1.0370225687177859,-0.4681432572825788,-0.7125490869093565,-0.5413030936101594,undefined,1491900856687
903d185fccf839df,-0.6099277287428339,-0.9038937210025393,-0.5739775630562809,-0.5675598581594804,-1.3529116483193868,-1.470492359448755,1.872578702751618,-0.646764178899282,-0.2875438140223671,-0.5356565834587586,0.0017249459997471823,-0.15967367707881258,-0.43445020053475936,-0.7067500872962603,-1.1233905929645058,-0.9929753897855785,-1.0170112262733708,-0.8249569956451756,-1.0893216086687958,-0.8201747289221992,-0.978208028690328,-0.43758030939050074,-0.7088399852087994,-0.547788044502976,undefined,1491900857334
903d185fccf839df,-0.5926025797678418,-0.7357137779008002,-0.22721836931992773,-0.3111867787749201,-1.31763638967334,-1.5562242411252956,1.8404412602556615,-0.9741892115243338,-0.31040123287916077,-0.5218031287832451,0.009217947194727207,-0.036712490196473456,-0.5432472704991087,-0.6660134065323201,-1.0697063032169587,-0.8717389261415045,-1.0144068411546558,-0.7410982674654324,-1.0657073710169633,-0.7473529145039725,-0.9245753328513701,-0.4053381415248919,-0.644774717397784,-0.4967410914438606,undefined,1491900858169
903d185fccf839df,-0.5350829588810686,-0.6749576963672442,-0.038047973099328176,-0.014286819508785445,-1.3519532129634277,-1.5677411205904048,1.8084916788897882,-1.1892845244491947,-0.2699692866657367,-0.24293092966541854,0.08977404126368924,-0.07791160428318962,-0.5628307430926917,-0.6595325734580929,-1.088653685523587,-0.718172736974696,-1.0075830941893218,-0.7155691612120715,-1.0448842524943451,-0.5970228030317362,-0.8761917943809924,-0.3627295491512667,-0.6437565324516821,-0.5436885788740515,undefined,1491900858800
903d185fccf839df,-0.44568498900357095,-0.586024836467877,0.24395293266427728,0.2499877120193097,-1.1438522183298698,-1.5932709300519001,1.8795306431707675,-0.6978292350569993,-0.38386001542472076,0.1890616291838688,0.07875098606090783,-0.05472447103877374,-0.7129706996434938,-0.5558391924673591,-1.086548410597526,-0.6009774784216932,-0.8327698756197143,-0.6272645007398688,-1.0162138272978043,-0.5394369297806514,-0.809703492469492,-0.3343929951986137,-0.6368197293401701,-0.48773952026549694,undefined,1491900859661
903d185fccf839df,-0.5032046012639917,-0.4430865382853575,0.4111118923529426,0.5305105079265013,-1.1149168845720692,-1.6314208535388353,1.883168786783864,-0.724498161078582,-0.3873719507319655,-0.05748200260967425,0.02198575267641322,-0.04857516530434462,-0.8957497771836007,-0.5132508164340676,-1.076022109589558,-0.37062819467148045,-0.8241677633895153,-0.5880551467319076,-1.0033557896887562,-0.32409731226173233,-0.7558661341599737,-0.3065822585229129,-0.5021368586232341,-0.43987433561441863,undefined,1491900860286
903d185fccf839df,-0.43390385008967974,-0.5252686964783364,0.4111118923529426,0.5305105079265013,-1.1618137714498515,-1.6272653194835087,1.8852061178527788,-0.7105709345461537,-0.3670036704875849,-0.1670727140634298,0.04327688273354439,-0.0058218729331656425,-0.9523242535650625,-0.5558391924673591,-1.0381273081651317,-0.2776802797237912,-0.8264178415427694,-0.6092344292903454,-0.9852061105917113,-0.2250595992581752,-0.7432834478004567,-0.3308847735397644,-0.5020971399141341,-0.4233101214021857,undefined,1491900861176
903d185fccf839df,-0.43875489663343487,-0.49621142484333536,0.4356754991994613,0.6079173640735401,-1.1763442304256149,-1.6302990743321384,1.9204486241414336,-0.4762262457190028,-0.37379763007698813,-0.32830456431401767,0.013741749364776849,0.051413326668980214,-1.0001949643493762,-0.5465808521037349,-1.0402325683667253,-0.14432008774761734,-0.8361644472129273,-0.6072620615701818,-0.9770111309676205,-0.19354782651880473,-0.7272197211607523,-0.3557104973432851,-0.5475079094242237,-0.43439654015876905,undefined,1491900861836
903d185fccf839df,-0.37846331816104967,-0.4659800647561069,0.5457325547906576,0.7692878481967991,-1.1390050085148182,-1.6576880150396256,1.9030206793241653,-0.619523239276997,-0.3932124473406145,-0.22209423865858796,0.0021431891264600267,-0.044681702320141126,-1.0045468471479502,-0.5863916625691439,-0.9991798840021426,-0.2716184155577413,-0.875445164739317,-0.6327268274307293,-0.961063066326045,-0.21927349560014456,-0.738727149367794,-0.3763610564946026,-0.5415431275922588,-0.45634926342895343,undefined,1491900862668
903d185fccf839df,-0.4200437171075222,-0.5108867997963701,0.7712695672683215,0.8356474814271845,-1.1666821039418982,-1.683239769094327,1.9023088741236498,-0.6705515385211297,-0.36687489021781977,-0.15670474121912176,-0.0027093370106375,-0.0683759126042914,-1.0045468471479502,-0.6002791666391931,-0.9476008986295918,-0.2615154028300632,-0.8720167268680674,-0.631592545269712,-0.9492293790819609,-0.27006006560022267,-0.7459248245726703,-0.3742604324785031,-0.5268467544536015,-0.46033147098932686,undefined,1491900863300
903d185fccf839df,-0.438061889984327,-0.4524787782552997,0.8188014362613536,0.8286633838694786,-1.1596106856285886,-1.6955261914386919,1.864594113616798,-0.9298294317451261,-0.3642538450460318,-0.1710995258083291,-0.006780859631609215,-0.07585037622927474,-0.7564895276292335,-0.6373125539952396,-0.9360219307096579,-0.17462921072481624,-0.875445164739317,-0.6466437763455921,-0.9474951207972608,-0.214202438727825,-0.7423132541514924,-0.3691839172815493,-0.5482280751959062,-0.4489976894729781,undefined,1491900864184
903d185fccf839df,-0.4560800628611318,-0.46069698822899907,0.9757523500340545,0.891008496778193,-1.1548949530250177,-1.6925079707373227,1.8630305326823466,-0.9276192260274493,-0.37100806828791755,-0.21285911011380293,-0.004725246079383473,-0.04741338865047476,-0.5867660984848485,-0.629905870048643,-0.9265482377157852,-0.23322684000131763,-0.8934681105491408,-0.6498079265847674,-0.9429769453526452,-0.23365144272838584,-0.7456556550653496,-0.3797070418411356,-0.5469713714581407,-0.4597922972573822,undefined,1491900864825
903d185fccf839df,-0.4498430288982182,-0.4134422224242427,1.0255170662647206,0.9853131999119973,-1.0922752497295107,-1.6984247844623928,1.8639655024710717,-0.9109513427909213,-0.3443061303811191,-0.09462475756902175,0.016994619604070137,-0.015028377115551923,-0.5824142156862745,-0.6178700159202343,-0.9233903400511609,-0.22918563491024638,-0.8941613313205165,-0.6409074603083672,-0.9342517689828742,-0.2173109890083526,-0.7347899181002132,-0.3950247949822833,-0.5667128050053134,-0.46012309283492536,undefined,1491900865718
903d185fccf839df,-0.44707097642272936,-0.37587320408848923,0.8707992538666031,0.9233397694800736,-1.099091459596779,-1.6923685033731757,1.8624671911012942,-0.9120840612684743,-0.368143516712446,-0.15997003854188588,0.033520675851077715,-0.05999122336938867,-0.5998217468805704,-0.6336091764073113,-0.872863977417173,-0.16654678641031298,-0.8964897374041062,-0.6425961596851869,-0.9268481118437857,-0.18930268490043148,-0.728743381465985,-0.3999049390179401,-0.5802819625983022,-0.46478634550086445,undefined,1491900866296
903d185fccf839df,-0.46578220770675666,-0.36031724818228783,0.8436837308424492,1.0280581693890236,-1.0864772808276146,-1.6944719314594414,1.8877360425545104,-0.7454138712616828,-0.3676080014347107,-0.18309037163161318,0.019819898226378276,-0.07891925891511133,-0.6389886920677362,-0.6289800256516609,-0.8802324028472184,-0.10390792377801883,-0.9108112813703749,-0.636583587919118,-0.9208543015914384,-0.1699648715481063,-0.7216801826754842,-0.408444165185302,-0.5817115471625927,-0.4713167007142822,undefined,1491900867173
903d185fccf839df,-0.46023818901930336,-0.47361125973168494,1.0618839366587343,1.0287164438280123,-1.057288571987979,-1.7093551995836842,1.867324559364701,-0.8986270635210741,-0.3611264560273146,-0.18347914431382967,0.013435430891940756,-0.06046050256536517,-0.6955631684491979,-0.6243508489944615,-0.8886534510158267,-0.027124857459336103,-0.9118373274911484,-0.6224701700419322,-0.9143863401020353,-0.12566854416578196,-0.7044057952577111,-0.40208199797872746,-0.5437298508844061,-0.45524939419532096,undefined,1491900867794
903d185fccf839df,-0.4117275855601131,-0.5058970846283612,1.2194724800375385,1.4381449124850694,-1.005685230548139,-1.721003724137971,1.8822487050198702,-0.797081633300453,-0.35196002086432254,-0.23047025476668767,-0.0004363704941742546,-0.015460815486709864,-0.7651932932263815,-0.6132408716399712,-0.8949692610695428,-0.01904243314483286,-0.8853458560210956,-0.6048636244515431,-0.9179741728327838,-0.09596044910612693,-0.6928917685791112,-0.41574649536157415,-0.5038547016005187,-0.46745188768984897,undefined,1491900868679
903d185fccf839df,-0.45746616242287186,-0.4853515596941127,1.4478806047013133,1.6176994798298132,-1.015538929851393,-1.7218073112925731,1.8751797901670246,-0.8328742379794029,-0.3801890823541312,-0.13893881968505042,-0.03373443839707959,0.03119904318333764,-0.7738970588235294,-0.6187958732679909,-0.8718113105052073,0.009246129683912713,-0.8815243858966773,-0.5914408377833797,-0.9136919829585126,-0.07098135549213176,-0.6796163560030617,-0.4134419393271416,-0.5119603674706544,-0.4754450279561079,undefined,1491900869308
903d185fccf839df,-0.31609266798322616,-0.5299646995513382,1.3164501233897101,1.6345629833204252,-0.9771938503637405,-1.7127256078317614,1.8670905042376316,-0.8595974643782046,-0.3914391492363657,-0.20599535032582247,-0.05422675033418317,-0.014354912510435075,-0.6650999888591801,-0.6271283627592459,-0.8791797432974864,0.001163677104687935,-0.8901454957776768,-0.5932698376244049,-0.9167281024579317,-0.06374425289501037,-0.6807000484068542,-0.4219011346734157,-0.49662652823368586,-0.4879043226893057,undefined,1491900870195
903d185fccf839df,-0.31609266798322616,-0.5323128179998083,1.4089620722666139,1.5465492881160492,-0.9532898902622916,-1.7123063444844222,1.8612207766216435,-0.8900266734567932,-0.38882002632667007,-0.2967971929335874,-0.05827212519839856,-0.1147552044573898,-0.7913045900178254,-0.6206475232096313,-0.8728639479682379,0.01126667570000526,-0.8692383263687762,-0.5883936117199025,-0.9138528273803425,-0.05028467948945746,-0.6759369136770427,-0.421734269938541,-0.47477090130357436,-0.4896116713768022,undefined,1491900870896
903d185fccf839df,-0.45746616242287186,-0.564598759808454,1.3132601964005477,1.499694803469743,-1.005232658782161,-1.7122341383708373,1.8821961099981193,-0.7729273687683432,-0.36889729538672833,-0.45528359614731506,-0.06602814614336855,-0.0334417424829196,-0.8174158868092692,-0.6206475232096313,-0.8823376409621106,0.019349142411590806,-0.8722943014466394,-0.5849515681872962,-0.9154668955973627,-0.03385630454238334,-0.6713038762792948,-0.43148746525969595,-0.4481440205813028,-0.5028479346945784,undefined,1491900871745
903d185fccf839df,-0.44776403482995186,-0.5006140081012534,1.4057721452774514,1.496601016758557,-1.005078372708423,-1.7008860847455907,1.8514510436601763,-0.9474933818751242,-0.3793225164531013,-0.40841303047056426,-0.049428020653844336,0.010145030921892282,-0.8174158868092692,-0.6141666966107914,-0.8749692081698315,0.01934912827923004,-0.8318176944916471,-0.5734770061138349,-0.9120299457091008,-0.014463251366022218,-0.6630657752788984,-0.42814253594865403,-0.44174840998390547,-0.5051037151276401,undefined,1491900872315
903d185fccf839df,-0.4588521757210876,-0.49474385812003957,1.5844154266420853,1.6176994798298132,-1.0057263708476447,-1.6997214649935053,1.9009229546042863,-0.6147746126010983,-0.36227682162280334,-0.40861840287943235,-0.08295935257152767,-0.01148524051186654,-0.8174158868092692,-0.6113891957967815,-0.8760218309083946,0.009246101419191178,-0.8167619512139206,-0.5660714321154532,-0.9138389399646601,-0.018335188481655162,-0.6624400716017924,-0.4133984567280734,-0.42341530378428954,-0.49441618427050205,undefined,1491900873184
903d185fccf839df,-0.45053595791015416,-0.5006140081012534,1.7094655457014647,1.714972011741921,-0.9739641382808245,-1.7052184703196078,1.8602950858024399,-0.8902134657042277,-0.3492799692989589,-0.2581913856493909,-0.08814394306428694,-0.0020384423893612404,-0.8087121212121212,-0.5734299705191404,-0.8749692081698315,0.07794672929100989,-0.7802873354998623,-0.5532590982940354,-0.9152409505903405,0.010864567514007979,-0.6526889415953927,-0.4133311334626831,-0.38497744408123413,-0.4947782564059402,undefined,1491900873818
903d185fccf839df,-0.5184507820497747,-0.5141153530580453,1.7158451455428403,1.6599108892916759,-0.9973743835960811,-1.6859952597436767,1.8571393164084562,-0.8860651903933366,-0.34170725264799184,-0.33335646614019787,-0.08594807471657151,-0.11754675702335743,-0.852230949197861,-0.5697266188327611,-0.8981271513719332,0.10219410116104499,-0.7715783713889593,-0.5506474037748954,-0.9204437999069038,0.043145909846444834,-0.6484998955522574,-0.4174003840969914,-0.3710659311038693,-0.49730114220431654,undefined,1491900874729
903d185fccf839df,-0.5309249017337164,-0.5129413230618026,1.7681625403619896,1.811644555793891,-0.9861526883811781,-1.6800137734358407,1.8716505865861595,-0.7716163333428265,-0.3487311171598213,-0.38237405909218747,-0.13201810278028223,-0.09519176241802059,-0.9305648395721926,-0.5632458051846957,-0.9002324262979944,0.09209107430100613,-0.7545386447415496,-0.5458370273724336,-0.9207509393825928,0.03457648144764204,-0.6485663971549523,-0.4122531503803476,-0.37502821858967805,-0.49609027426853514,undefined,1491900875357
903d185fccf839df,-0.49073051608545964,-0.5152893830542882,1.733071564522556,1.7651437914258437,-0.968605288981485,-1.6831000155005278,1.8994423726354488,-0.5955502516061183,-0.37113963441117614,-0.4640954314672583,-0.14210976770328498,-0.09148743483262448,-0.7477857620320856,-0.5632458051846957,-0.8970745212711364,0.049658208859346624,-0.7545386447415496,-0.5433803793153581,-0.9199050536410177,0.03424651442982498,-0.6474759879088997,-0.41021803629662845,-0.3749383702564745,-0.49596882161130396,undefined,1491900876193
903d185fccf839df,-0.45192200571377966,-0.5399440129753864,1.733071564522556,1.7651437914258437,-0.9791481280998251,-1.7039373889880773,1.8829245629387446,-0.7410267676614247,-0.40170117516459786,-0.5597859244766863,-0.1778928226300594,-0.0823312546332412,-0.6215811608734403,-0.549358314065421,-0.9054955768019785,0.09613227939207737,-0.7292661996022087,-0.5223056178673535,-0.9143593529351239,0.06396551521607524,-0.6311785075921881,-0.41138820237208373,-0.35670173404840866,-0.4970646714189226,undefined,1491900876811
903d185fccf839df,-0.5073626066532292,-0.5763389428589124,1.7126552185536776,1.6599108892916759,-0.9753938483627012,-1.720330574703936,1.9020511408139509,-0.6432581954918524,-0.37035092231381145,-0.558311158350823,-0.2192330750639137,-0.04599216836116637,-0.5737104500891266,-0.5484324761438262,-0.901285026949856,0.14462682527909684,-0.7112998789659618,-0.5137878086710914,-0.9084820314806279,0.13529111538486221,-0.6136673875716306,-0.40577738407110403,-0.3298707372558963,-0.49921638020429243,undefined,1491900877682
903d185fccf839df,-0.46162413330669966,-0.5452271479584789,1.7126552185536776,1.6599108892916759,-0.9742727066833252,-1.7164267697584963,1.9178326060645956,-0.5375413204438211,-0.39676358790355737,-0.45113381512139883,-0.1973429894977956,-0.021778721373486826,-0.6999150512477719,-0.5225091179453683,-0.8907586964929527,0.10825595119473416,-0.7203179386288856,-0.4967141924725493,-0.9021779047645176,0.15500112633692303,-0.5986182997148675,-0.41526700495314467,-0.35167736487920276,-0.5068349149190792,undefined,1491900878332
903d185fccf839df,-0.5406269948212268,-0.5287907280110801,1.7547639321144892,1.6958402367641674,-1.0136977826215643,-1.713822680177929,1.8996580128531415,-0.6519251099128874,-0.431932705797211,-0.4640521481311859,-0.21811004742998388,-0.006731709489760989,-0.7216744652406417,-0.5271383205041168,-0.8897060590299222,0.12846197665009035,-0.7298103528897583,-0.5097917211719004,-0.9076913917292221,0.15818860489432437,-0.6057392777164915,-0.42364852613847137,-0.3379881173402186,-0.5042775705711268,undefined,1491900879166
903d185fccf839df,-0.4893443992710147,-0.5399440129753864,1.742641599626993,1.7714849455192763,-0.9936201013302985,-1.724318231744768,1.9215195873780615,-0.5332594015899814,-0.4200907916786575,-0.34135077223413374,-0.1973402287328145,-0.0021229059136410613,-0.7260263480392157,-0.5262124696317474,-0.884442945337107,0.1284619483853688,-0.7223924450883733,-0.5002289764737251,-0.8983366556054558,0.1494730841389975,-0.5993763494352803,-0.4173977034650814,-0.3524624859684648,-0.5058016798101899,undefined,1491900879792
903d185fccf839df,-0.4713262263942099,-0.5193984880411379,1.8287731862516727,1.778426125118623,-0.963143579706978,-1.7260977710381586,1.895847419777905,-0.7031838789273666,-0.41184476611010395,-0.401987361077661,-0.12096459360428972,0.04267742351301083,-0.7216744652406417,-0.5743558731946078,-0.8865481613652979,0.12240015488112273,-0.7283229953584941,-0.5085124663885039,-0.9045148396523812,0.12692976106915654,-0.6080985898599903,-0.4358471285340176,-0.35181655361580866,-0.5210484580766118,undefined,1491900880671
903d185fccf839df,-0.5447850692212838,-0.45071767480495084,1.7126552185536776,1.6807145453197292,-1.0342486037080088,-1.7260861246214456,1.9073607119120084,-0.6471711810970937,-0.42098723727147247,-0.3751654388590754,-0.10290532190764197,0.1298258262565055,-0.7173225824420678,-0.5734300093714639,-0.901285026949856,0.12846192012064728,-0.7349130284149037,-0.5134711611273386,-0.9067398252787162,0.12409644721473823,-0.6103816195555984,-0.43698873868517407,-0.36642726555556104,-0.52048649905504,undefined,1491900881334
903d185fccf839df,-0.47271223969242565,-0.4847646323799683,1.7126552185536776,1.802561555926163,-1.004492081921653,-1.7414823961876342,1.9029978653470156,-0.6980368796826789,-0.4054158966313663,-0.18973885284297798,-0.08368777138596943,0.07186261811996512,-0.7347301136363636,-0.5280641066226134,-0.9128640243187252,0.12846192012064728,-0.7283229953584941,-0.48085016754747256,-0.9166613029550351,0.10945252612034995,-0.6016728758709866,-0.4415158295565683,-0.3538412955302378,-0.523551795262094,undefined,1491900882206
903d185fccf839df,-0.4436059259244851,-0.4284110756483458,1.85429387284972,1.7797645103340998,-0.9852475428326964,-1.7325381177070331,1.8767234732774454,-0.8309878543438213,-0.3603992012494104,-0.21229473925536982,-0.10490571349250682,-0.009848626381275219,-0.7826008244206774,-0.5225091049945937,-0.9065481995405416,0.12442079982374064,-0.7157724874867427,-0.47896295027624314,-0.9140514924429809,0.15453917427937827,-0.5921277599318705,-0.44059557125909027,-0.3641648185487587,-0.4975740834025107,undefined,1491900882964
903d185fccf839df,-0.42558778755309007,-0.4190188356784036,1.8434475619852788,1.861644415761205,-0.9097813841355761,-1.7317112384148534,1.9072187056675372,-0.6111979979431766,-0.2886527739583195,-0.1963286108027989,-0.047065738116052136,-0.10416091496899516,-0.5606548016934046,-0.5289899704457572,-0.9065482216272429,0.1769565225371098,-0.7140085712687578,-0.47056546697109475,-0.915702739932218,0.1666577504821235,-0.5854453410812952,-0.4475015389362235,-0.3745445351125938,-0.49934834935549827,undefined,1491900883680
903d185fccf839df,-0.3756912053010938,-0.42430197066149605,1.8434475619852788,1.8670595292367789,-0.8908865588379515,-1.7313595232870673,1.8990663096926255,-0.6685632342898113,-0.25512653370309496,-0.2123022209961743,-0.016706289598787814,-0.058097552424792316,-0.4823209113190731,-0.49473408390372065,-0.920232464473238,0.16685349567707095,-0.6981630048246684,-0.4551890800988803,-0.9218599338462494,0.1911258803097352,-0.5748081027545583,-0.4482561845955512,-0.36876457750336133,-0.5055776006938123,undefined,1491900884284
903d185fccf839df,-0.27035419463669663,-0.37792775658191413,1.733709702402558,1.802561555926163,-0.8582294680581152,-1.7260558441351483,1.855364193832886,-0.9329995800434339,-0.2478421261304488,-0.2725659005363712,0.015040702292813481,-0.05220826867648593,-0.3517644273618538,-0.49473408390372065,-0.9233903474133947,0.1830184008355205,-0.7008027399294833,-0.4532448665283377,-0.9256801928662999,0.20860311525854178,-0.5708837962156708,-0.45319642145949857,-0.370796061360525,-0.5170904166753945,undefined,1491900885222
903d185fccf839df,-0.24263379065074264,-0.3644263823971299,1.751573750988377,1.8960061866550346,-0.829727802394735,-1.726398242547073,1.8470724172268795,-0.9813491456214133,-0.26148879738116615,-0.2921996038919023,0.057621165091148493,-0.04850900425561662,-0.29518995098039214,-0.4725140903424164,-0.9360219233474241,0.1971627175807952,-0.6866120076998853,-0.4456643327637895,-0.9275203542920266,0.2718907260966287,-0.557290871323864,-0.4521764137156004,-0.3582071999630745,-0.5250872554111526,undefined,1491900885819
903d185fccf839df,-0.11512042919325449,-0.39906026728629174,1.7534879104914343,1.861644415761205,-0.7504353665198567,-1.7288416140965506,1.880118558976708,-0.7441417643505981,-0.2668832755257761,-0.3429342833440633,0.08395635576155484,-0.16730934985587745,-0.6607481060606061,-0.42899991523985365,-0.9360219233474241,0.26182216862626423,-0.6427171861701401,-0.4178500441548307,-0.9318863643280098,0.3249383698648094,-0.5353176570554224,-0.44401605245529346,-0.34302062044781834,-0.5194997798423487,undefined,1491900886679
903d185fccf839df,-0.14145481988099273,-0.3738186515950644,1.8377055917500065,1.9019330528389993,-0.7675919094961046,-1.7063388344409318,1.8276171196800872,-1.0569596513361252,-0.26814492647327137,-0.3697955218070795,0.13924625969778243,-0.13444719545515052,-0.8217677696078431,-0.39937325715811467,-0.9391798136498145,0.28606937090797013,-0.6314657780614472,-0.4134993116103857,-0.9314525622922212,0.3447869648065403,-0.5269472344012813,-0.4456949731245476,-0.3534765034406241,-0.5163667123814943,undefined,1491900887307
903d185fccf839df,-0.04304773768603537,-0.3661874858474787,1.856208032352777,1.9530029062223353,-0.7492319415087576,-1.6786255464524615,1.83870964483129,-0.9319558412513372,-0.2819728737101381,-0.4535896134795721,0.18841838335682995,-0.047038358750504466,-0.9827874331550802,-0.4141865861989842,-0.9360219233474241,0.3143578348101903,-0.6112342159668249,-0.4078629922136602,-0.9372039412059906,0.34407863622177487,-0.5247636254626695,-0.45789343098243157,-0.3648840819401549,-0.5289887715167896,undefined,1491900888190
903d185fccf839df,-0.0375037189985821,-0.34622885899938216,1.856208032352777,1.9530029062223353,-0.7221599883918959,-1.670899459990836,1.8229597398410136,-1.0166727468947385,-0.28421590938121294,-0.49864380699658445,0.19337576301256046,0.013382960586488614,-0.9827874331550802,-0.4567749233799521,-0.9423377186766726,0.31435780654546874,-0.6148593936353426,-0.4047091859190457,-0.935804579122411,0.3606473631450347,-0.5220533599911209,-0.4494979217133812,-0.3586683749448888,-0.521057391778098,undefined,1491900888834
903d185fccf839df,-0.06245195836646564,-0.4524787782552997,1.8817282106769253,1.976693894773105,-0.7042731619921945,-1.6667440975414831,1.8452710139007829,-0.858949836757604,-0.25910558818582086,-0.3300515156376719,0.19347783363699894,-0.05859292138564955,-0.9262129567736186,-0.4502940967811122,-0.9381271982734853,0.30627542462804785,-0.6174152709134455,-0.40213801086353784,-0.925981056835068,0.389319268000603,-0.5129601099995812,-0.4512773584510777,-0.3681818280885848,-0.5214646659101709,undefined,1491900889688
903d185fccf839df,-0.038889732296797846,-0.45365280825154247,1.9072486431380231,1.976693894773105,-0.6753394960349335,-1.6663970404237036,1.83800748940154,-0.889114662056047,-0.2768567576750388,-0.32626789600480044,0.17723151478598273,-0.02943620670673197,-0.9349167223707665,-0.4252965894550236,-0.9433903561397031,0.3123372181322939,-0.6174152709134455,-0.4057097913412002,-0.9272894606096991,0.3739516192567368,-0.5178007731192688,-0.4590256054903712,-0.36402748237235644,-0.5202932756806148,undefined,1491900892266
903d185fccf839df,-0.038889732296797846,-0.45365280825154247,1.9072486431380231,1.976693894773105,-0.6753394960349335,-1.6663970404237036,1.83800748940154,-0.889114662056047,-0.2768567576750388,-0.32626789600480044,0.17723151478598273,-0.02943620670673197,-0.9349167223707665,-0.4252965894550236,-0.9433903561397031,0.3123372181322939,-0.6174152709134455,-0.4057097913412002,-0.9272894606096991,0.3739516192567368,-0.5178007731192688,-0.4590256054903712,-0.36402748237235644,-0.5202932756806148,undefined,1491900892306
903d185fccf839df,-0.09710229082185945,-0.45365280825154247,1.9053344836349662,1.9652402815398942,-0.6952937481535271,-1.6652207745738357,1.8281378291460635,-0.9601770499952483,-0.26049981246741444,-0.31208872194342513,0.1888070910921852,0.005479203431922375,-0.9349167223707665,-0.42714826529821315,-0.9518114337572466,0.3123372181322939,-0.6240409917695627,-0.4012197347556193,-0.928338982277903,0.3702867890520482,-0.5163953101522182,-0.452627329712069,-0.3822092952524153,-0.5101972412979362,undefined,1491900892685
903d185fccf839df,-0.05274986527895537,-0.47243728819142683,1.8511036917236081,1.976693894773105,-0.6640869428786936,-1.6726021340153845,1.8454419516496807,-0.8556387790594467,-0.2432543224492428,-0.3000693954707692,0.1818319837912047,-0.048887112681916624,-0.9175091911764707,-0.4327032539754583,-0.9286534831929112,0.32041968484387945,-0.6310329608222911,-0.4123087188412892,-0.9169271839766079,0.3817124340923388,-0.5143626977422667,-0.45995920661887363,-0.3926611127497348,-0.5175899770688068,undefined,1491900893287
903d185fccf839df,-0.1289806656916412,-0.3908420865405846,1.8402576349961162,2.0448770518605324,-0.6869623329802186,-1.6527290646770025,1.832224547918656,-0.9088460166611455,-0.23285366476398425,-0.43596696875911606,0.17996919902086483,-0.14343652491014736,-0.8130640040106952,-0.4632557629295666,-0.9233903253266933,0.2840486977006306,-0.6195541295639743,-0.4236256887110988,-0.9200897426335586,0.41367960725616115,-0.5127815933281268,-0.462577705267834,-0.4432823111868847,-0.4965965893581911,undefined,1491900894186
903d185fccf839df,-0.051363886486149354,-0.32744434983150544,1.8377055917500065,1.976693894773105,-0.6650640841553632,-1.6335570968211388,1.8097134087956508,-1.009872627571863,-0.2117276250974002,-0.3853967182426504,0.23018163213737156,-0.14994331034792455,-0.6868594028520499,-0.48084659278444597,-0.9339166631458304,0.2678838773363457,-0.6274077831537732,-0.44229520709283693,-0.9294024980082888,0.38566983437009983,-0.5268282700368069,-0.4728246170363545,-0.4614447409193342,-0.5054316662759314,undefined,1491900894773
903d185fccf839df,-0.13452475338991396,-0.319226139857806,1.729881891670343,2.002431386675034,-0.650262966939221,-1.6277642781990842,1.7842726607577293,-1.1645145700954393,-0.2734132069129277,-0.4895937253055272,0.22299875663774693,-0.14969699345317916,-0.22555982620320855,-0.4928824469128547,-0.9360219159851902,0.31031662971911905,-0.6528777300921953,-0.4438721108713241,-0.9293885042641942,0.40493328975802734,-0.5220128374703363,-0.47684586062000844,-0.5026294718297469,-0.5163907829163317,undefined,1491900895742
903d185fccf839df,-0.1594729927577975,-0.35444709820107395,1.6577865428992669,1.7711800403952271,-0.6784149200435903,-1.6236578297402355,1.7657588244707483,-1.2933888859459743,-0.2385827752730117,-0.4306454710068949,0.2619812067212622,-0.09651306989910946,-0.4213945521390374,-0.5058441001105346,-0.9360219159851902,0.31839906816598307,-0.6661375928645369,-0.44897646359710863,-0.9292625615338386,0.3921063845262606,-0.5268678542983252,-0.47535699638209633,-0.5082785107850104,-0.5126762959713893,undefined,1491900896402
903d185fccf839df,-0.166403093754286,-0.32685739328936875,1.635456291564281,1.6986932468404365,-0.681603485785427,-1.6238651316405692,1.7769749414808067,-1.2041743674716574,-0.3021544061112275,-0.35592352508106107,0.25658049935596355,-0.1206135870438556,-0.3996351381461676,-0.4789949298920309,-0.929706150104877,0.33052271170391834,-0.6548477102288428,-0.44618996856730286,-0.9244137712353947,0.38602399814418364,-0.5216097933682071,-0.48216750830673294,-0.5347154751099371,-0.5184557694224228,undefined,1491900897179
903d185fccf839df,-0.07908411794505467,-0.34916396321798143,1.635456291564281,1.6986932468404365,-0.6819223441640808,-1.632688290089565,1.77474486500107,-1.2422280228634077,-0.3201088971703748,-0.28514039307034017,0.26089397955352317,-0.13797864808337137,-0.865286597593583,-0.4965857726976848,-0.9360219380718917,0.33860515015078235,-0.6706452323393676,-0.4477415396409205,-0.9277372562978263,0.3875792411881078,-0.5230707029204994,-0.4775482910180832,-0.5406163162990257,-0.5224278281781027,undefined,1491900897823
903d185fccf839df,-0.21075548479178033,-0.304550823360756,1.7164837916967413,1.8039532741677382,-0.6658149411094503,-1.615577699125888,1.8310043060175023,-0.8360931614292543,-0.28698127288014585,-0.22422738613158705,0.22124701799492852,-0.03655414478682767,-0.9349167223707665,-0.5095474776984629,-0.9402324658373127,0.3588112321355816,-0.6775790827640542,-0.45838088490820567,-0.9263588845245356,0.38759464034705643,-0.5256449816453543,-0.5016961370398887,-0.5676602836176217,-0.5305800272950351,undefined,1491900898657
903d185fccf839df,-0.2897583808117172,-0.232347861679856,1.719035834942851,1.8352655747194024,-0.6874046177228127,-1.5950314799022562,1.7920910680264315,-1.0673243244658883,-0.2768032522013268,-0.13294734958593096,0.29150243947365456,0.053361155574489706,-0.9131573083778967,-0.5188058180620873,-0.932864055131735,0.35072876542399606,-0.6733240090969375,-0.45953981346275175,-0.9237910552325311,0.36802321544439925,-0.5295553224993343,-0.5097572951538611,-0.5843113950127856,-0.5128670658701815,undefined,1491900899276
903d185fccf839df,-0.22600163107215362,-0.19066973835725282,1.7177593050458972,1.86049126997901,-0.6302675714363184,-1.601546361312801,1.7758099333088029,-1.1533480121626167,-0.20510206293593145,0.12298185159506128,0.29171961724453044,0.06804844528614218,-0.8783422459893049,-0.5030665863457502,-0.9318114103064706,0.376996725707206,-0.6597845693254015,-0.45077501939109466,-0.9296753728800806,0.43329722429112766,-0.5141870364509032,-0.512242393869904,-0.5929434055131959,-0.5262059934976987,undefined,1491900900511
903d185fccf839df,-0.2135275803990313,-0.19066973835725282,1.719035834942851,1.8744160346808925,-0.6130698865801532,-1.6008056630340362,1.7941817581137036,-1.0310411131514199,-0.19905296072538337,0.06864075327283788,0.3066716525401015,0.03784626422338326,-0.8783422459893049,-0.4928824080605311,-0.9318114103064706,0.3668936705824456,-0.6542450398817476,-0.44655727889087826,-0.9298642867553997,0.4434601974779383,-0.5107935002276053,-0.5110312314461205,-0.5914604183109063,-0.5244247101852354,undefined,1491900900796
903d185fccf839df,-0.24540581724717414,-0.22823875669300628,1.7177593050458972,1.8814101580776854,-0.6465395451634394,-1.5941417100236113,1.7525098494803768,-1.296129332607706,-0.17329204192639966,0.2673632637425186,0.3793549746820811,0.0006593996932705712,-0.9044535427807487,-0.49565993477609,-0.9349692932466273,0.4335737948352541,-0.6567447819417781,-0.44150992170034703,-0.9257431650389298,0.4848358221825973,-0.49974359004300006,-0.5118517211855323,-0.5845295402791427,-0.523125501699313,undefined,1491900901692
903d185fccf839df,-0.22600163107215362,-0.22530368170239937,1.6852211348634218,1.8401196419140642,-0.6128641725193525,-1.588122955707079,1.7065566171419082,-1.546364639325183,-0.19650395143003668,0.04805151072358826,0.35391794314502756,-0.03453943099472064,-0.8913978943850268,-0.44566494602546186,-0.9254956002527546,0.43155312162791465,-0.6381892107393154,-0.4184453412369988,-0.9236930993786586,0.5100584755812931,-0.4830370361191585,-0.504320350244036,-0.6079696072948264,-0.534248391715605,undefined,1491900902284
903d185fccf839df,-0.1941233942240108,-0.214150396738093,1.9429775027205096,2.1088935121395553,-0.546932854632803,-1.5754751880361735,1.7595735104876649,-1.1667467378978271,-0.205907459324988,-0.05224549260125074,0.39218786622319635,0.08433779140100098,-0.8130640040106952,-0.4373324565342068,-0.9233903400511609,0.38709983736140946,-0.6438873006844835,-0.4092309081697835,-0.9237070930371143,0.5138772889749873,-0.4794980687315928,-0.49992746437665786,-0.6061003689299954,-0.5296270991540227,undefined,1491900903209
903d185fccf839df,-0.1733331947507745,-0.1912568118113589,1.740728202534784,1.8953349227795677,-0.5500802784507108,-1.5749161708775823,1.735481859483008,-1.3248017374768213,-0.19298398934924985,-0.02712346140322247,0.4591439015252813,0.09341927318548038,-0.7434338792335116,-0.43177745490618713,-0.919179804923506,0.4335737948352541,-0.6424379632193845,-0.4053424808072315,-0.9210203176054167,0.5213301364094424,-0.4754810570138192,-0.5025039863608148,-0.605344139742348,-0.5342389791601061,undefined,1491900903799
903d185fccf839df,-0.22461568678475732,-0.2000620367831797,1.9812584055491056,2.04882416407939,-0.5028277866280831,-1.5602862191386513,1.75896076889944,-1.1365212139285261,-0.2175199696486011,0.03280083160076013,0.462254505042579,-0.019020175507552466,-0.7260263480392157,-0.4715882912731453,-0.9097061119296334,0.34466702844919306,-0.6511037590473033,-0.43045893563108795,-0.9194180481715742,0.46928339163565713,-0.4969765800619725,-0.4891024395947807,-0.5965176758390851,-0.5622404669214618,undefined,1491900904750
903d185fccf839df,-0.25094993945085664,-0.20710621676063634,2.045059232564901,2.2166869343895828,-0.5109020581211032,-1.5681217802498808,1.7583506544958742,-1.1593312411785344,-0.21055170673304274,0.10278011703975054,0.46467331309087506,-0.056404423626131045,-0.6999150512477719,-0.4854757694416454,-0.9170745447219124,0.3305227682333614,-0.6472498889942495,-0.4382484561217401,-0.9249035477643137,0.4837733279659494,-0.49964850519558873,-0.4818507009189769,-0.6010737340487646,-0.5633752900654209,undefined,1491900905396
903d185fccf839df,-0.2897583808117172,-0.2798960765276884,2.045059232564901,2.2166869343895828,-0.5153763374871377,-1.5851042629926995,1.7648804606861939,-1.1539176968979883,-0.22208604644000216,0.05726121988881375,0.40612848146334973,0.028427996474751145,-0.6999150512477719,-0.4882532832064298,-0.9002324336602282,0.3244608899349507,-0.6444163559765561,-0.4431311556471793,-0.9246656560599315,0.49211928545168604,-0.500064005788228,-0.4808747895289973,-0.6115821643398324,-0.5566232754821754,undefined,1491900906187
903d185fccf839df,-0.23015973997762035,-0.261111596587804,2.244119114035363,2.396798394255807,-0.551993418864065,-1.5909972387457336,1.7772063615668034,-1.085830400506273,-0.22959126653094697,-0.005089284991217215,0.38753890626359033,0.03915725922971295,-0.5258397393048129,-0.4864016332647893,-0.9223377025881303,0.3386052066802254,-0.6423319374014381,-0.4300979577473533,-0.9211672503769104,0.471300587571789,-0.4984450191306433,-0.4830203561458401,-0.6093700542081996,-0.5479717852955699,undefined,1491900906801
903d185fccf839df,-0.2343177798722676,-0.2628727584941375,2.2077523707098234,2.3248763536293997,-0.5691499609100709,-1.594924336191172,1.7951574172937603,-0.9865014163439503,-0.23999970613356844,-0.03341719357300084,0.3635325981180584,0.10486987393759456,-0.42574643493761144,-0.4965857726976848,-0.9044429393389479,0.32244030152177583,-0.6511543232586132,-0.4374125074843477,-0.9161225497225921,0.45614851867964773,-0.50542640536783,-0.4815202082032723,-0.61981518177631,-0.5378584802950414,undefined,1491900907927
903d185fccf839df,-0.25787993693111594,-0.2628727584941375,2.177127597619557,2.3248763536293997,-0.5832619375109183,-1.5947962278253445,1.7844541088165466,-1.0611435821012813,-0.226452665969258,-0.0712932929238756,0.3751997643918857,0.10895616260369269,-0.31694936497326204,-0.5067699509829039,-0.9223377025881303,0.3264814783481256,-0.659690156945681,-0.4460379772324989,-0.9235741530309856,0.44479986480306627,-0.5128552714956897,-0.48549282089910323,-0.6161984987724014,-0.5328662584134463,undefined,1491900908293
903d185fccf839df,-0.21214149808999608,-0.29457156839269244,2.1732995327503923,2.28550885717004,-0.5618573989750841,-1.6069129302248646,1.833773492731048,-0.7603502046848503,-0.21853414697096393,-0.1359802881431267,0.34573172930596,0.04849753401870595,-0.5650066844919787,-0.5151024793264826,-0.9233903400511609,0.28606939917269164,-0.6633337109089892,-0.4488941346482927,-0.9231753346886736,0.40919865990053816,-0.5207797357203425,-0.4838817619781374,-0.6272732399603482,-0.5324898474356972,undefined,1491900909685
903d185fccf839df,-0.21214149808999608,-0.3092469433457271,2.254964916625905,2.300737761235962,-0.5612299715537631,-1.611473580353394,1.8234436132031064,-0.8375880965703627,-0.20474708837084357,-0.10486036032904465,0.3432152943155436,0.00011742972775826677,-0.6041736296791445,-0.5160283042973028,-0.9254956076149883,0.27192516722158155,-0.6699314090718861,-0.45757026743095297,-0.9234132263441195,0.39242975231142657,-0.5280739683049569,-0.48323409645008003,-0.6445174763043908,-0.5348758271727619,undefined,1491900909808
903d185fccf839df,-0.1733330912345453,-0.33801073670965975,2.1732995327503923,2.28550885717004,-0.6008401888343808,-1.636701571563762,1.8464859752445737,-0.7367800728424633,-0.22607151931700548,-0.2864866840195052,0.23906907516587864,-0.03804211189519736,-0.5650066844919787,-0.5123249785124727,-0.9276008751788157,0.2355542366077758,-0.677571831186311,-0.45810856751618795,-0.9228814687236091,0.37680033183930994,-0.5339836734675377,-0.47017943502617615,-0.61538868932826,-0.5375656938794533,undefined,1491900910696
903d185fccf839df,-0.1899653543293635,-0.32040022831003345,2.097376373247101,2.258077833230634,-0.6616698020201183,-1.647192464439243,1.834675511652752,-0.8558512929285931,-0.24946152866045995,-0.26183289516561314,0.23076862238166249,-0.0022255455021300383,-0.45185773172905525,-0.5225091438469174,-0.918127182184943,0.2860694274374132,-0.6992150610503557,-0.46977384956508733,-0.9190192288627668,0.35126970873741215,-0.5421375428420631,-0.45748304503579845,-0.6284031659423319,-0.532530873320025,undefined,1491900911299
903d185fccf839df,-0.24817791285442511,-0.3609042631804092,1.8160129700211238,1.896601279586963,-0.693894891319765,-1.6689964730090439,1.8389331707930476,-0.8630025621157146,-0.2800632374823514,-0.35323378588886545,0.12913341934740033,-0.026306115795264186,-0.3517644273618538,-0.4854758082939691,-0.9181271748227092,0.215348126358255,-0.6815211944517142,-0.468760578355238,-0.9299272570072723,0.3402906177669385,-0.544482015659407,-0.4474920349284387,-0.6277275292536747,-0.5543657535630758,undefined,1491900912164
903d185fccf839df,-0.31609256446699696,-0.3902551299984479,1.881090581070822,1.893210855410978,-0.7475142283148675,-1.6818398984395746,1.8168664663603538,-1.0467095514821099,-0.36082033342459685,-0.39338495111782834,0.09908369593040087,-0.06859697174344795,-0.26907865418894833,-0.5058441648644073,-0.9212850798495673,0.22949238657408663,-0.6998718424725122,-0.4771137309937413,-0.9395828559987356,0.33996725039910397,-0.5519494670043201,-0.44637583972568873,-0.6332522525969334,-0.5498476249383083,undefined,1491900912829
903d185fccf839df,-0.3036185482992844,-0.42665005988197396,1.7649721050989282,1.7818081917166324,-0.8106889780407547,-1.6989784404351438,1.86131281921911,-0.8254161007464942,-0.3153561680876996,-0.37878360447088816,0.09761269210006565,-0.05959998121733886,-0.669451871657754,-0.5289899704457572,-0.9212850798495673,0.2274717981609118,-0.7004628716511584,-0.4811794802255937,-0.94457158200088,0.30207167689622,-0.5644259651153613,-0.43761964887518745,-0.6193010942042334,-0.5443391499562025,undefined,1491900913700
903d185fccf839df,-0.30223253500106867,-0.4190188356784036,1.7649721050989282,1.787037370412502,-0.7989632841530925,-1.724648986086656,1.8785170065723045,-0.7500367053505794,-0.3409918670769228,-0.45586147535314847,-0.010874367402775283,-0.06513445898713453,-0.7347301136363636,-0.5160283172480774,-0.9391798283742822,0.13856497524540767,-0.7288398760960404,-0.482731052135248,-0.9544510786957145,0.2942338679352009,-0.5711639217914658,-0.424249852329467,-0.6104788902419344,-0.5518933315404694,undefined,1491900914286
903d185fccf839df,-0.35628701912607325,-0.4859386623762111,1.7062751104384033,1.7166699335476718,-0.8617780328161992,-1.748409555204419,1.863669121551254,-0.9371090830477922,-0.3485584362520647,-0.4184940443953408,0.0114781556670869,-0.08098243374594971,-0.9175091911764707,-0.5012149882072079,-0.9381271982734853,0.14058564845274713,-0.7289774538474563,-0.48010287983919375,-0.9575016881645411,0.27235267694256526,-0.576205195494606,-0.4218436791051627,-0.5932894289037096,-0.5491713245124242,undefined,1491900915164
903d185fccf839df,-0.33965485954748426,-0.543466132192107,1.5397544156982148,1.60438418449726,-0.9376247633420133,-1.7582925165248928,1.8560821307022222,-1.0331254350728063,-0.36192228576775626,-0.3858292702655069,-0.02034300109471975,0.041379629689147684,-0.9175091911764707,-0.5104733156200577,-0.9476008986295918,0.11431765990481564,-0.7390837923498321,-0.4943203381956187,-0.9613429371095056,0.2242941282065996,-0.5940159996076808,-0.4230086583550565,-0.568377895597727,-0.5418515245671748,undefined,1491900915817
903d185fccf839df,-0.33826881174385875,-0.5557934179246639,1.4925413615082346,1.331547993473576,-0.9991126612742482,-1.7844731657793977,1.8512406557167584,-1.1309568497096887,-0.3853440295816067,-0.45624975420234,-0.06132636256425362,0.011475114659770863,-0.852230949197861,-0.4956599606776391,-0.9349693079710949,0.09613225112735584,-0.7390837923498321,-0.4968978466211272,-0.9562492589747965,0.22390916728583943,-0.5929469911736533,-0.42312375709554967,-0.5697674704714449,-0.5487645242518161,undefined,1491900916693
903d185fccf839df,-0.33826881174385875,-0.5569675063768913,1.4651072778179786,1.3029455305941,-0.987664678928031,-1.8068688003032414,1.867474451876998,-1.0513413609461701,-0.39977667308777853,-0.4524353751950979,-0.0904296286552351,-0.023040750921565684,-0.8261196524064172,-0.5178799671897178,-0.9423377186766726,0.09007048588783129,-0.7374791727656103,-0.5027558191739048,-0.9586911459157033,0.21955140714376645,-0.5988325472190271,-0.4226201612769745,-0.5476421859950792,-0.5383174464545737,undefined,1491900917278
903d185fccf839df,-0.3853934019048333,-0.5557934471526562,1.3368667234955378,1.3654083705315325,-0.9833138301110271,-1.8207231153468364,1.9075947780380567,-0.81299897434414,-0.4107349554385023,-0.39544540235538655,-0.08804103813757322,0.012355669852836563,-0.8913978943850268,-0.5151024534249334,-0.9402324511128451,0.0718849357867638,-0.7468739347955718,-0.5040350735088314,-0.9559903769968277,0.22734302095691908,-0.5990748147154799,-0.4092851206230258,-0.5247531117609859,-0.5240091021961821,undefined,1491900918176
903d185fccf839df,-0.4117276545709326,-0.5469882221808354,1.3196405586527715,1.2393166268253704,-0.9930543851104319,-1.8358585125519062,1.882324969844077,-0.9968576233954647,-0.3990550794887255,-0.3970693771205403,-0.11562043825023245,-0.018500044428254852,-0.8913978943850268,-0.5086216268260936,-0.9339166557835966,0.011266718097087564,-0.7594807629855953,-0.5092154216473312,-0.962343481517533,0.21648711458830744,-0.6062980525770029,-0.4029361612621796,-0.5253601106897848,-0.5304105390096037,undefined,1491900918854
903d185fccf839df,-0.42835981414952157,-0.5334868772240434,1.31134629103444,1.2264042622640965,-1.0036177971552482,-1.8370301196089383,1.8829666408416845,-1.000922588159384,-0.3907597101133767,-0.32631608416322466,-0.10751933664434479,-0.012004068331644337,-0.7913045900178254,-0.49010497200039393,-0.9276008567732312,-0.008939363887711695,-0.7405129092587449,-0.5099943738248472,-0.964267604282288,0.21687207557637933,-0.6056883857989025,-0.4027872186331879,-0.5232708782444582,-0.529434233221675,undefined,1491900919750
903d185fccf839df,-0.39232346839591203,-0.5628376855860975,1.1716217962414548,1.2183279388220911,-0.9521584542536289,-1.8500575547007472,1.8804919921160674,-1.0223325783268622,-0.4205342712094501,-0.28040303913797,-0.11790637751372203,0.050820490069050456,-0.8217677696078431,-0.4706624404007759,-0.9476009059918256,0.0031842796502235537,-0.7405129092587449,-0.5061186122721366,-0.969207352748988,0.217872974490001,-0.6051838229679518,-0.4038389104203104,-0.5144723930462914,-0.5545087028950361,undefined,1491900920293
903d185fccf839df,-0.4006395826906163,-0.5387700414351283,1.0784722177584478,1.1011796597644854,-0.9675150014824664,-1.8532602585840767,1.86046075765928,-1.1675153698279621,-0.39236172810816816,-0.30343761629592986,-0.0948424447096197,-0.029828784159534473,-0.8957497771836007,-0.4993632735116946,-0.9539166718721389,-0.0008568971761261474,-0.7836350637462041,-0.5339772312487605,-0.9731815416266765,0.14955007274486765,-0.6321857943629174,-0.3981548735405553,-0.5103832996384503,-0.5486482266257797,undefined,1491900921168
903d185fccf839df,-0.3493569526349945,-0.5381830264370069,1.0408297069468033,1.0797969859265912,-0.957856730849054,-1.8479845312867453,1.8730259711788415,-1.0803409449446186,-0.38889948773586924,-0.22118796416821687,-0.07907452801089465,-0.03939559743855169,-0.9740836675579323,-0.5002890984825149,-0.9570745916234645,-0.01904241901247209,-0.7951417824048114,-0.5382583017283441,-0.973804257819169,0.12866978155436648,-0.638684526840721,-0.3957843316091948,-0.5017318126545874,-0.5367100543291243,undefined,1491900921811
903d185fccf839df,-0.3285667186563485,-0.5223335630317447,0.9917027473907154,0.9193480953923356,-0.9641207207035747,-1.8523914522330454,1.8855990720137505,-1.0136227563171534,-0.39862609713983826,-0.11473554367145272,-0.06224254078890212,0.05654934190368014,-0.9566761363636364,-0.5419516883973099,-0.9739167026851487,-0.061475199659967,-0.846451295340453,-0.5645463509608815,-0.9848242353597788,0.0810269904685057,-0.6651658381122139,-0.4086354263450835,-0.4896160411992337,-0.5418243299904189,undefined,1491900922697
903d185fccf839df,-0.2620380803419924,-0.5405310864294924,0.8806888661849399,0.9132523476746635,-0.9239242179655751,-1.8546834234675769,1.8799975864460978,-1.0446390236993532,-0.39694225704170705,-0.11361542260460784,-0.05619255949321291,0.04138052426384996,-0.9697317847593583,-0.5595425053014147,-0.9739167026851487,-0.029145445872510955,-0.8430441983677405,-0.5815946354456173,-0.9866294125109079,0.0885414314020373,-0.671154775583722,-0.41513627819230375,-0.489440680389074,-0.5402354784937331,undefined,1491900923294
903d185fccf839df,-0.25094997395626634,-0.5405310864294924,0.851340114717728,0.8862221108573687,-0.9375630520745417,-1.8571500871401354,1.9219193258847103,-0.7768844965798889,-0.3947693653780481,-0.04779812635039494,-0.02541879813567931,0.0526042229870571,-0.8087121212121212,-0.5502841519870159,-0.9865482933436457,-0.04733091117941383,-0.8331584798052261,-0.6009227793718442,-0.9898339517884361,0.08110398296498346,-0.6820578876586412,-0.4183873812961138,-0.4923714401574221,-0.5399866036949946,undefined,1491900924168
903d185fccf839df,-0.1941233252131913,-0.5810351212998682,0.7479821091133325,0.7978340191981071,-0.9113653788348114,-1.8637185418704036,1.9240520970174881,-0.7679937741684448,-0.41369640477324665,-0.032466975091489256,-0.02835433343514719,0.01319771330867913,-0.843527183600713,-0.5465808003006366,-0.9960220084242198,-0.08572245847111595,-0.8370206573306521,-0.6051658520232636,-0.9919539853923134,0.08198169479967787,-0.6849344109370231,-0.421773200531702,-0.4782979828083762,-0.5381683296097666,undefined,1491900924807
903d185fccf839df,-0.19550933851140706,-0.5616636555898548,0.7581902820977716,0.8603887334894152,-0.9280693514334427,-1.8830023134914131,1.9340032848466637,-0.7269299472884976,-0.3848575900342525,0.05105528206004266,-0.013964591813433121,-0.017989916619160426,-0.7826008244206774,-0.5502841519870159,-0.9897061836460361,-0.08976369182690873,-0.8388653715526495,-0.5857363811200049,-0.9862305943154055,0.07693100502985356,-0.6754579823890227,-0.4160094632807682,-0.45643255653637854,-0.5269271051545977,undefined,1491900925684
903d185fccf839df,-0.23015967096680087,-0.5775130605391322,0.7479821091133325,0.7978340191981071,-0.9368430511813017,-1.8837942545482327,1.9433575078133531,-0.6688014447965664,-0.3918047092934474,0.09427663585425383,-0.0029780657080422414,0.01733243690610114,-0.7826008244206774,-0.551209976957836,-0.9886535535452393,-0.10794912886909007,-0.8572724914352589,-0.6046338852526625,-0.9878538542613997,0.049429380897368994,-0.6896584679881627,-0.41705434171084077,-0.4481988665343744,-0.5316095048836663,undefined,1491900926298
903d185fccf839df,-0.2592660882509706,-0.6156690646450147,0.6758870144792058,0.7330206635902937,-0.9427778975142747,-1.9026890426703387,1.9628706704640417,-0.5643884252096645,-0.3623714411048484,0.04411536665904041,0.014790850599096845,0.04369300250745383,-0.7434338792335116,-0.5549132897918916,-0.9770746150742405,-0.10188730710012245,-0.8570414665348766,-0.6169197957542629,-0.9801083850491125,0.02676286781381721,-0.6958976377470335,-0.4186836563313081,-0.44430466075612374,-0.5362999600633599,undefined,1491900927172
903d185fccf839df,-0.25094997395626634,-0.6068638104452015,0.6516423495042135,0.6250388782970513,-0.9391470501186482,-1.912152741803221,1.9499556873224453,-0.6594443552090826,-0.35169249450519097,0.08672518546210634,0.03456009545814242,0.028248029222295735,-0.7129706996434938,-0.5493582946392592,-0.9791798900003018,-0.10188736362956552,-0.8597914639569061,-0.6165461521437369,-0.9832709433512734,0.021219426106923137,-0.6972033023328417,-0.4208745594912191,-0.41046961040425683,-0.5336566886343567,undefined,1491900927836
903d185fccf839df,-0.2661961547420494,-0.6309314545961708,0.579547254870087,0.5824757082982278,-0.955460163969229,-1.9130401814373825,1.9526117888207273,-0.6546998581275514,-0.33571625929838533,0.043054292557182745,0.061180187700762625,0.05944496920577297,-0.6825075200534759,-0.5595424923506401,-0.9886535535452393,-0.13219647247440364,-0.8719505056388294,-0.6225054525594126,-0.9870352275906916,0.029134227577882286,-0.7004499725815115,-0.42589735351648556,-0.41140986119705,-0.5276234750466295,undefined,1491900928698
903d185fccf839df,-0.26203811484740214,-0.6373886195755061,0.5572167493981517,0.600171043816927,-0.9404533329803614,-1.9136527712307212,1.9670178720974942,-0.5585937595217967,-0.3374139182072321,-0.03699599470626809,0.09233868053470136,0.08163874656921398,-0.6650999888591801,-0.5873175134415132,-0.9812851575641293,-0.10794918539853314,-0.8719505056388294,-0.6291613764861581,-0.9797935281926383,0.00825393469112982,-0.705138221844551,-0.43092822483976595,-0.4285193679445273,-0.5324573664848333,undefined,1491900929314
903d185fccf839df,-0.2842143276188541,-0.6667393987095678,0.5291442736909441,0.533731033850428,-0.9510373157590826,-1.9215069656576989,1.9758566483476994,-0.5164858586291022,-0.33832415433848323,-0.0737856297020811,0.10935942027337876,0.05930345067426084,-0.7695451760249554,-0.6326833773380401,-0.9844430405042859,-0.09986677521639066,-0.8875927574058208,-0.65103536431329,-0.9801013879813193,-0.042360755961994824,-0.7273171818787243,-0.4342377187993646,-0.4298979137142149,-0.517862609618037,undefined,1491900930174
903d185fccf839df,-0.2620380803419924,-0.6485419191538085,0.5827371818592495,0.6373177186633449,-0.9775435574973385,-1.9265893653710282,1.9777501099840902,-0.5082218583557887,-0.3344273353507913,-0.1238052341100566,0.10680199403837932,0.018118537709182047,-0.7695451760249554,-0.6400900548092494,-0.9907588431957681,-0.065516418883399,-0.8947343168420759,-0.6595405077550774,-0.9825432748732895,-0.04921306500679325,-0.7346342695367838,-0.44562734374370355,-0.4194333052852661,-0.5140893625753412,undefined,1491900930877
903d185fccf839df,-0.3549009713224478,-0.6544120691350225,0.4423745491862621,0.5848792552938191,-1.0311320397039252,-1.9343643659155754,1.9626997274775346,-0.6334358233686977,-0.31098950556845006,-0.14977746288115285,0.11464578343137632,-0.10648237955922614,-0.6520443404634582,-0.6521258830361091,-1.0181272920765896,-0.025104226649078947,-0.9043407438771973,-0.6735869766211394,-0.9834178761227672,-0.08467568460034494,-0.747747226761178,-0.443854604786575,-0.4253760659931721,-0.5128258826412638,undefined,1491900932663
903d185fccf839df,-0.3549009713224478,-0.6544120691350225,0.4423745491862621,0.5848792552938191,-1.0311320397039252,-1.9343643659155754,1.9626997274775346,-0.6334358233686977,-0.31098950556845006,-0.14977746288115285,0.11464578343137632,-0.10561826035353312,-0.6259330436720143,-0.6521258830361091,-1.0181272920765896,-0.025104226649078947,-0.9043407438771973,-0.6735869766211394,-0.9834178761227672,-0.08467568460034494,-0.747747226761178,-0.443854604786575,-0.4253760659931721,-0.5128258826412638,undefined,1491900932736
903d185fccf839df,-0.3493569526349945,-0.6726095340767855,0.5265924845817838,0.5937557106415587,-0.9980840949612846,-1.9422814499142385,1.9825232058894118,-0.5043786961497354,-0.3158096709703591,-0.18059364223997534,0.1246185120691697,-0.17818428892912647,-0.12111463903743315,-0.6586067290611108,-1.017074654613559,-0.033186693360664495,-0.9073814338220128,-0.6750752184240832,-0.9838516783971212,-0.07997915886038831,-0.7481046297922785,-0.4422282666861554,-0.4253274572718677,-0.51382469531252,undefined,1491900933173
903d185fccf839df,-0.2814423010224226,-0.7043084024313251,0.5718908709948082,0.6252775940080929,-0.9584430198673635,-1.953750623919014,1.9727350711125908,-0.5724429883398886,-0.3190869535071745,-0.1751373838128242,0.12283668628908952,-0.20091851337315153,0.24444351604278078,-0.6771234097883595,-1.0244430800436042,-0.0372279125840965,-0.9219826322832378,-0.6783936811989432,-0.9892602132537289,-0.07129443640949652,-0.7492527433173681,-0.4463332189490588,-0.4301315756573535,-0.5148944604924762,undefined,1491900933803
903d185fccf839df,-0.30361851379387467,-0.7401163757727144,0.47682687887179476,0.5848792552938191,-0.9490316061149141,-1.9676422062500876,1.937729723163542,-0.8209044311924334,-0.3284198843395115,-0.2701873897922864,0.1361642589841914,-0.2800013199833729,0.6709280303030304,-0.704898417928458,-1.0370747001510363,0.003184251385502018,-0.9053746636032884,-0.6884313967172162,-0.9927376285469395,0.03316861879049294,-0.7293208201506903,-0.450280468426256,-0.4549443015349706,-0.5358868978273877,undefined,1491900934695
903d185fccf839df,-0.40479751906903433,-0.7706411556750266,0.5597690467812109,0.6175678831663965,-0.9638121518129469,-1.978440559186158,1.9552126764927737,-0.7218538690837715,-0.31628770162431113,-0.27357462526026904,0.13786482631060637,-0.3945660685112984,0.4663895387700535,-0.7076759122670806,-1.0381273228895993,-0.015001228053761622,-0.9068876754198885,-0.6986401023459586,-0.9890433121287863,0.03929720058968282,-0.7313881623217234,-0.44817567417740073,-0.47161793549027353,-0.5290076697706986,undefined,1491900935296
903d185fccf839df,-0.4879584204782087,-0.7988179194268417,0.5718908709948082,0.6014654214832551,-0.9989069501642163,-1.9988703168955806,1.9342925684652736,-0.8861816300407332,-0.31546050059948616,-0.33740519404189406,0.14318562753933065,-0.4150111781741522,0.42287071078431376,-0.7011950791928533,-1.0391799309036949,-0.05339273294838145,-0.8949589058533689,-0.6917815238062865,-0.9838726690744336,0.08561572383245933,-0.7190792294739208,-0.44738661787961587,-0.4756898051747617,-0.5274872704623214,undefined,1491900936187
903d185fccf839df,-0.5129066598460922,-0.7888386498447819,0.6407960386397723,0.6934915458339533,-1.0191286329624758,-2.0071111651206097,1.9446382247189533,-0.8291449865903288,-0.312727638725946,-0.38657997150288737,0.16709836249567647,-0.3648033155619293,0.8362995766488414,-0.7039725800068631,-1.0412852205542236,-0.004898172929001225,-0.9074212259222065,-0.695213979246213,-0.9859227346674171,0.07123357570485396,-0.7247277706036214,-0.44926161053032515,-0.4643938270666809,-0.5291025099049077,undefined,1491900936813
903d185fccf839df,-0.5032045322531722,-0.7958828298222386,0.6880090928297526,0.7412916406000427,-1.0101080763736645,-2.009233101919872,1.9474994508874,-0.8092162720107516,-0.3145450143935753,-0.4163593035240681,0.1812622344975508,-0.29542625373531045,0.549075311942959,-0.7150825832629025,-1.030758897459554,-0.015001213921400854,-0.9111054918631423,-0.7010149560311972,-0.9886654846411818,0.06980151951099774,-0.7285040770408415,-0.4497193967503098,-0.4784201838128786,-0.5318897208610519,undefined,1491900937693
903d185fccf839df,-0.49073041256923045,-0.799991920195092,0.8794123362879862,0.9855150698654693,-1.0348040363773958,-2.016160259227841,1.932462220016967,-0.9201666302685904,-0.3063998275998093,-0.436299382964663,0.1756860318644982,-0.3258829577048982,0.32277740641711233,-0.7261925865189419,-1.0276010071571635,-0.03520726764147858,-0.9175857978206192,-0.7086651520377801,-0.9936472141260682,0.052047110767132955,-0.7354725987979087,-0.4616683233588858,-0.4957778972045915,-0.5464090583698099,undefined,1491900938327
903d185fccf839df,-0.44083393383346337,-0.824646608572175,1.0867659771028806,1.0695712976252731,-1.0055309424578758,-2.022307121779729,1.9185847309027197,-1.007872290013309,-0.31553644267662867,-0.39729880306892296,0.15785329053164407,-0.34199995232255515,-0.0950033422459893,-0.7289701002837263,-1.0328641723856153,-0.03924851512963212,-0.9010101042072823,-0.7184432174078732,-0.9949696109413317,0.03289144597818361,-0.7444152006021812,-0.45810778782558764,-0.49081987421646195,-0.541931911924186,undefined,1491900939184
903d185fccf839df,-0.44083393383346337,-0.824646608572175,1.1244087420514746,1.0793142140235767,-1.001200663606577,-2.0233156823660448,1.9230527717013026,-0.977964936920096,-0.3144441935726309,-0.37903539459534236,0.1543978745989533,-0.3144211618986067,0.20092468805704103,-0.7289701002837263,-1.0370746927888026,-0.04126907527808543,-0.9111935912657971,-0.7214133679538135,-0.9935212709736353,0.018940454861566362,-0.7476973588944017,-0.4567000273283247,-0.49921937151098666,-0.5412856723066556,undefined,1491900940827
903d185fccf839df,-0.44083393383346337,-0.824646608572175,1.1244087420514746,1.0793142140235767,-1.001200663606577,-2.0233156823660448,1.9230527717013026,-0.977964936920096,-0.3144441935726309,-0.37903539459534236,0.1543978745989533,-0.3144211618986067,0.20092468805704103,-0.7289701002837263,-1.0370746927888026,-0.04126907527808543,-0.9111935912657971,-0.7214133679538135,-0.9935212709736353,0.018940454861566362,-0.7476973588944017,-0.4567000273283247,-0.49921937151098666,-0.5412856723066556,undefined,1491900940850
903d185fccf839df,-0.4630101466049154,-0.7976438455886103,1.1352550529159158,1.0793142140235767,-0.9826761226901517,-2.0202946588490533,1.905682905682377,-1.0852422872399679,-0.3145662328458541,-0.4208825308264553,0.14862881411764925,-0.34749615638993464,0.4054631795900179,-0.7428576108291629,-1.0402325904534269,-0.019042404880111323,-0.9111776212595372,-0.7276386517658631,-0.992590695390071,0.019448603628605437,-0.7497649575369979,-0.45543904663291906,-0.49669527259122215,-0.5441793262254497,undefined,1491900941311
903d185fccf839df,-0.4630101466049154,-0.8093842040070228,1.1907621205872783,1.2336499302610076,-0.980660126942839,-2.0336388708695297,1.921645827372013,-0.9889308096030562,-0.3107129159894348,-0.3987420727464229,0.16948238212484293,-0.33549715073246306,0.6578723819073085,-0.7530417826389947,-1.0444431108566141,-0.07561948814052016,-0.927900175759696,-0.7435280078344695,-0.9954943721302234,0.007268434142180716,-0.762427688349278,-0.4496120817705252,-0.49975694183489305,-0.535275177531601,undefined,1491900942191
903d185fccf839df,-0.4699402476014039,-0.8205374889713292,1.1977801124456053,1.2070855227788793,-0.9919435357358154,-2.0355861146726366,1.8966100732575806,-1.1620628059006306,-0.3160876019442185,-0.3584376050895522,0.17860896594476694,-0.30899625447343304,1.1626907865418896,-0.759522615713222,-1.0433904954802848,-0.05339273294838145,-0.9184959259932378,-0.7385503139711593,-0.9929755202268535,0.018478502427077298,-0.7584492424045959,-0.45006624527355327,-0.49869895760200705,-0.5338953653034937,undefined,1491900942879
903d185fccf839df,-0.30916256698673766,-0.8258206239544216,1.2233005449067031,1.2584742272644187,-0.9504921769068486,-2.0396320028837334,1.869375799257453,-1.3370328932169013,-0.29997651237652173,-0.25985421569898,0.1351759463803192,-0.35211496643980145,0.905929701426025,-0.7298959317299338,-1.044443147667783,-0.02308362410354333,-0.9028779059826956,-0.7436989971421223,-0.9890992870195257,0.04371655498472166,-0.7544689296323019,-0.44989547319554674,-0.5195919288479156,-0.5420833853695198,undefined,1491900943760
903d185fccf839df,-0.3909373515814671,-0.82934271394315,1.1907621205872783,1.2250450304465113,-0.951520746762735,-2.035958792382117,1.8679925215880535,-1.342909943436897,-0.29287555981525326,-0.23621918013291313,0.15392592000131858,-0.3830562346813965,0.6448167335115865,-0.731747594622349,-1.0412852131919899,-0.025104269046161254,-0.897345168220436,-0.745028915591208,-0.9958721997646373,0.08036485471608977,-0.7493810149915989,-0.4513583923455513,-0.5244931752917361,-0.5500915479390999,undefined,1491900944298
903d185fccf839df,-0.3424269206493255,-0.8340388339281211,1.0408291986729046,1.1752284740015428,-0.9219082252670565,-2.0332685214257133,1.8794216621063635,-1.257897216488384,-0.30466196526622796,-0.2867149234053213,0.1676736500137932,-0.3107698417799274,0.30101799242424243,-0.7335992704655385,-1.0444431329433155,0.015307951452880338,-0.901208963711156,-0.7515708462493906,-0.9941160002468253,0.1940823769620661,-0.7255754960859183,-0.45006407569453316,-0.5373954228555401,-0.5381441055549311,undefined,1491900945180
903d185fccf839df,-0.3535150270350515,-0.854584388090362,1.1295130826806434,1.156356345639408,-0.8883048498715539,-2.0355115789234355,1.9053410364697119,-1.0781453839377229,-0.3124921637021353,-0.27045508640665145,0.17757396373210832,-0.2750709098874338,0.2531472816399287,-0.7132309203704875,-1.0412852205542236,0.0860291677378739,-0.9045943929403373,-0.7441043057755521,-0.9909254546766896,0.2095270187139778,-0.7194442117151867,-0.4454913466840077,-0.5346514586232648,-0.5214085872367363,undefined,1491900945781
903d185fccf839df,-0.357673032424289,-0.82934271394315,1.1837438745920017,1.2704922215261054,-0.9408339050731238,-2.033247558438107,1.884384114336286,-1.2233271265567645,-0.31314845198254015,-0.31076236294226345,0.1825696320602436,-0.26551983602663626,-0.034076983065953644,-0.7123051018750546,-1.0265483476074315,0.043596500149265145,-0.9228254392929639,-0.7411974846553124,-0.991436221766697,0.19349723696400659,-0.7201224424996145,-0.4461407258055373,-0.5391056911196758,-0.519412928469743,undefined,1491900946674
903d185fccf839df,-0.4103416757781265,-0.82934271394315,1.1837438745920017,1.2973205422050937,-0.9792921276303043,-2.030126377674161,1.8852046077793343,-1.217961825580648,-0.328925996300807,-0.3164667058878161,0.17027097861293547,-0.21392953713810417,0.009441844919786108,-0.6965658960602666,-1.0265483476074315,0.12037952407086557,-0.9228254392929639,-0.7371950639190008,-0.9875180078653866,0.18861592866708668,-0.7177685877275312,-0.4442164249103873,-0.5497339456219315,-0.5150378725470688,undefined,1491900947331
903d185fccf839df,-0.4255877185422706,-0.8293427285571461,1.095698382601214,1.1339108848616373,-0.9617858702425629,-2.0334665067152877,1.8785354209579195,-1.261795255278155,-0.3316323399443915,-0.3457838015891768,0.18390252261869147,-0.22776678417829108,-0.33000501336898397,-0.7141567453413078,-1.03286414293668,0.18301833017371666,-0.9320264560245332,-0.7480560617000849,-0.9898899263794395,0.19112587569216286,-0.7228896896348053,-0.45028061053899626,-0.5874958349642511,-0.5239084914036342,undefined,1491900948199
903d185fccf839df,-0.35628708813689275,-0.809971204391148,1.3183645370297166,1.2403980818804936,-0.9866978280896348,-2.028838308693384,1.9010597101457658,-1.1093308174665963,-0.3238251630603356,-0.355067900163672,0.18488309566768085,-0.24250866986575073,-0.2516711229946524,-0.7197117534447147,-1.0381273449763007,0.15877104309784615,-0.9271727962999178,-0.7473467720635836,-0.9956133178233708,0.1865833346759153,-0.725960462333639,-0.4485455170782684,-0.590547220570128,-0.5218971024541649,undefined,1491900948800
903d185fccf839df,-0.2661960857312299,-0.7964698740483522,1.1626896448800705,1.2020567946805312,-0.970868140129375,-2.0218342861455665,1.870738045831796,-1.2997527128635473,-0.33598557543713603,-0.3544586052249075,0.1599606560917902,-0.21756254614898035,0.005089962121212133,-0.7160084147091101,-1.0391799456281623,0.12846197665009035,-0.932110093015099,-0.7607979444288274,-1.001588594195829,0.20364481239194848,-0.7311046410058767,-0.44662517692836384,-0.5930251337114932,-0.5208109122078997,undefined,1491900949670
903d185fccf839df,-0.30639050588489647,-0.8199504739732077,1.1837438745920017,1.2973205422050937,-0.9510784589553426,-2.0256309462564164,1.8725263163771626,-1.287966278636591,-0.3308998447330646,-0.3491711682753471,0.14235403383289794,-0.23116250384608406,-0.06454016265597147,-0.720637578415535,-1.0370747001510363,0.11835894979005149,-0.9386065860959129,-0.7663202712047799,-1.002001406227182,0.19633055038763095,-0.7356168869005475,-0.4451780215734017,-0.6255868115459368,-0.5268905525549308,undefined,1491900950294
903d185fccf839df,-0.33411080635462126,-0.7641840053096874,1.3183645370297166,1.256407987922278,-0.9148316612714356,-2.010395393177968,1.8933780495146075,-1.1206407344430314,-0.34622705632313644,-0.45191038073829926,0.14408399517052517,-0.3063462563706164,0.2531472816399287,-0.7150825767875153,-1.0233904499428075,0.08602919600259544,-0.9273587337768775,-0.7609372690789967,-0.9984820102644574,0.19556062781914585,-0.7319410268422001,-0.4467124418595545,-0.6233851725115481,-0.5181367561281133,undefined,1491900951178
903d185fccf839df,-0.31747861227062246,-0.766532065302173,1.3285727100141558,1.2985169251982083,-0.9495870306861921,-2.0026320387601975,1.8986481819408847,-1.0870033690633236,-0.3437180302920899,-0.40374338295694573,0.1582947699406194,-0.2897303407455255,0.4663895387700535,-0.7104534130810904,-1.0191799221773863,0.10421468957421985,-0.9358023944419716,-0.7627484909596576,-1.0001332577781628,0.21798076541207453,-0.7281028589755938,-0.45081929051675157,-0.6239535974024748,-0.5262760685657792,undefined,1491900951779
903d185fccf839df,-0.2370898064686991,-0.7694671110647876,1.2711517369766858,1.2194016877582947,-0.9584841584544231,-1.973712204747244,1.859035412038397,-1.3080393923419147,-0.3412102688578107,-0.4518681916298434,0.15179602872433068,-0.21094996170979294,0.32277740641711233,-0.6854559057550018,-1.016022024512762,0.08198801917624574,-0.9468747364743848,-0.7559595751160266,-0.9955993241098615,0.234688080188687,-0.7195507192825642,-0.4533996888062513,-0.6342064052680849,-0.5322047164322017,undefined,1491900952668
903d185fccf839df,-0.1691750168344883,-0.7095915374144176,1.185020150352006,1.156998805644999,-0.9248807869959459,-1.9484189961851703,1.8721686620585847,-1.184814515214338,-0.336892838914204,-0.4709920109530435,0.17610379540446056,-0.17034594971769862,0.10083138368983958,-0.6900850694614267,-1.0065483388811232,0.05572011542247886,-0.9532203513162589,-0.7536480507125353,-0.9966278556451714,0.25034829997491215,-0.7160890865355443,-0.452613350430706,-0.6384884103595232,-0.5330944244538128,undefined,1491900953299
903d185fccf839df,-0.1691750168344883,-0.7095915374144176,1.185020150352006,1.156998805644999,-0.9114785244970146,-1.9485680674914891,1.8758714295254852,-1.1553945981065266,-0.34591912960238935,-0.4574065064377718,0.172959535906157,-0.15674343176279618,0.057312555704099835,-0.6873075686474168,-1.0012851736526716,0.05572011542247886,-0.9474900350230963,-0.7518304958162205,-0.9971876005397741,0.252196113320768,-0.7149440128063829,-0.45359841650958915,-0.6376916494512517,-0.5337700707019273,undefined,1491900955140
903d185fccf839df,-0.1691750168344883,-0.7095915374144176,1.185020150352006,1.156998805644999,-0.9114785244970146,-1.9485680674914891,1.8758714295254852,-1.1553945981065266,-0.34591912960238935,-0.4574065064377718,0.172959535906157,-0.15674343176279618,0.057312555704099835,-0.6873075686474168,-1.0012851736526716,0.05572011542247886,-0.9474900350230963,-0.7518304958162205,-0.9971876005397741,0.252196113320768,-0.7149440128063829,-0.45359841650958915,-0.6376916494512517,-0.5337700707019273,undefined,1491900955161
903d185fccf839df,-0.14561275625941078,-0.6638043091049647,1.1652416881261805,1.1690215141426759,-0.9251173590781041,-1.9400500399386138,1.874085790354865,-1.1566474024347724,-0.34678069181870075,-0.4715570860864656,0.16871858983247146,-0.13102950888170234,-0.2560230057932264,-0.6799008847008202,-0.994969378323423,0.10219398810215885,-0.9219977707956266,-0.7373343877552803,-0.9873640781667923,0.2930481889551432,-0.6982836448711761,-0.4445056419211915,-0.6375671436924932,-0.5272838562410748,undefined,1491900955676
903d185fccf839df,-0.1636309636416253,-0.6497159491500514,1.4159803182618904,1.324553897741172,-0.9104705258871666,-1.9380399067885221,1.8687183536291503,-1.1721407349561772,-0.3680443977064922,-0.46965244494801056,0.11740821306841322,-0.10725868183287399,-0.4126907865418895,-0.6734200645773676,-0.9939167334981586,0.11027648307846594,-0.903079721998614,-0.7205900843400559,-0.9780233354323309,0.31124915209192006,-0.6834462988897584,-0.4266943738592907,-0.6259801445857777,-0.5375587611829483,undefined,1491900956394
903d185fccf839df,-0.13868272427374176,-0.6608692341143577,1.4395865912199313,1.4014961655761842,-0.8812077173666073,-1.9406742769713614,1.908754521365524,-0.8996453746878122,-0.3689610956129515,-0.484359843412004,0.10144644751744142,-0.05448967263148877,-0.5345435049019608,-0.6604583854781386,-0.9749693401481794,0.1304824802691006,-0.8867230354845378,-0.7096974211927951,-0.9618537052822328,0.2988688018992564,-0.6771276196636331,-0.4215147979015227,-0.6207107822412344,-0.5363888113880498,undefined,1491900957254
903d185fccf839df,-0.1262086045898,-0.5739909705504039,1.553152769808766,1.5209457992501627,-0.866170028548432,-1.9154975302496755,1.9039630131696303,-0.890429340726512,-0.34093062418317344,-0.46797903759771703,0.10352505487709604,0.01500165377482995,-0.43880208333333337,-0.6780492282837924,-0.9539166718721389,0.0840086075894206,-0.8972085319162062,-0.7020472255405589,-0.9519882023987806,0.2621897030961016,-0.6801995266540185,-0.41852975200368675,-0.6161867781438256,-0.5187317823193187,undefined,1491900957794
903d185fccf839df,-0.08740019773434918,-0.5053101280862246,1.6092972129492822,1.6366580489371676,-0.8608831843777288,-1.8834541862720653,1.895166310632278,-0.9061634161516672,-0.29671740392801965,-0.5169996097485956,0.08324116917034562,0.017091653350410768,-0.6172292780748664,-0.6752717274697826,-0.9528640344091083,0.035514033437679594,-0.8843156059272801,-0.7003626622455394,-0.9516523553910612,0.24380395856012016,-0.6820118048163171,-0.4208704492588623,-0.63510990684015,-0.5157432388733026,undefined,1491900958663
903d185fccf839df,0.08446558926604304,-0.5258556822484655,1.561446783290148,1.5209457992501627,-0.7788753250368384,-1.877558881999672,1.9105243722876661,-0.7757989468717245,-0.3033191090516322,-0.6834051964401575,0.06843482309400226,0.0022069018093203944,-0.7695451760249554,-0.6586067225857235,-0.9391798357365159,0.12240012661640119,-0.8832744906535439,-0.6869368213338785,-0.929073646502395,0.2746778434569494,-0.6621543713860716,-0.4206013669344429,-0.6235175311300951,-0.48595514264548983,undefined,1491900959294
903d185fccf839df,0.06090332869096553,-0.543466132192107,1.5716549562745872,1.6010063997402786,-0.7428445294533809,-1.8705012876543,1.8741410052286231,-1.0014059170943126,-0.29080913096229477,-0.5750983304497033,0.07261811628694546,-0.048847342865660476,-0.7695451760249554,-0.6132408457384221,-0.9286535052796125,0.15068864704806445,-0.8423026878725847,-0.6705724940742177,-0.9282830067326381,0.3120652701448295,-0.645783831392901,-0.4164737723607341,-0.6269010129883567,-0.48113375665531133,undefined,1491900960224
903d185fccf839df,0.12604598821251561,-0.5422921021958643,1.6022797293648539,1.6058911412917227,-0.7391211073535144,-1.8536469132012001,1.8733520652370508,-0.9854110882458171,-0.29272910314003014,-0.5790399729620618,0.061895187289207586,-0.023286276483681305,-0.7956564728163993,-0.5984275166975526,-0.9276008825410496,0.148667973840725,-0.8182465329876957,-0.669730212360268,-0.9217969630071389,0.29631266069559986,-0.6454374954186003,-0.41460073009462384,-0.6286897194520921,-0.48573949241860975,undefined,1491900960832
903d185fccf839df,0.1315901104161981,-0.5651857163505908,1.7132936105706293,1.6304405924893026,-0.6979988917580204,-1.8445768551640673,1.8601109896085277,-1.0541462692011374,-0.3189169385444403,-0.615216618043348,0.039009746308944084,-0.037059830025299,-0.9001016599821747,-0.5975016982021196,-0.9339166778702981,0.1365444433616759,-0.7893576713406776,-0.6714527733284251,-0.9264008646373971,0.3338694692871781,-0.6400866020055552,-0.41282682905519624,-0.6253287727211848,-0.4879456701903807,undefined,1491900961681
903d185fccf839df,0.06506140309102251,-0.5452272064144635,1.534650075069046,1.5389546940669425,-0.6649200894021284,-1.84520109134875,1.8698780849101175,-0.9800639119071743,-0.33145736530257514,-0.5456247241283733,0.0362238669377008,-0.04582937916012332,-0.8739903631907309,-0.6113891957967815,-0.9076008517280397,0.1466474136922717,-0.7979509940261378,-0.6543728240477891,-0.9128900232627278,0.35624341002252696,-0.622644951103148,-0.40268298446870865,-0.652301784384291,-0.5013734634441966,undefined,1491900962310
903d185fccf839df,0.030411036130218973,-0.47243728819142683,1.507215483104891,1.453751714087994,-0.6737863594690853,-1.8342676416981327,1.8573733573939806,-1.045299448265577,-0.3319120917959256,-0.7382717604550397,0.017836635832568854,-0.07189983162778801,-0.8391753008021391,-0.6067600061888075,-0.9023376791373543,0.16483285073445303,-0.7823174780824558,-0.6447340835770152,-0.909090754754829,0.39416978181638374,-0.6099648071922507,-0.40740503836776254,-0.6464809901348355,-0.5043067043625195,undefined,1491900963162
903d185fccf839df,0.026252996235571716,-0.4783074381726407,1.3630247855627389,1.4124972526220634,-0.6725932182365247,-1.8262736926698253,1.8923892256044066,-0.8080067156913359,-0.33431726391326244,-0.7627201242772784,0.00020210085675518674,-0.06482817000171168,-0.847879066399287,-0.6030566804039774,-0.9002324189357607,0.17493590585921343,-0.78067247298503,-0.6387874491649642,-0.9065649061445727,0.39640255561181914,-0.6055433270207274,-0.4072303683434224,-0.652718095163101,-0.508445693638547,undefined,1491900963971
903d185fccf839df,0.04565718241059225,-0.4219539106690105,1.2737037802227955,1.2543964038554754,-0.6569383890444186,-1.8049797885003434,1.8969677139583747,-0.742518746250448,-0.33642272370539256,-0.8997298955665483,-0.026132452184597726,-0.00614281331027384,-0.847879066399287,-0.5688008456650391,-0.8897060884788572,0.18503904577813843,-0.7570451327730643,-0.597395329909637,-0.9070686764359376,0.4386558889202185,-0.5769519116392621,-0.41708438501295786,-0.6238922386193314,-0.5120110084573393,undefined,1491900964629
903d185fccf839df,0.05397333121070623,-0.3303794832780971,1.2705133449597341,1.1104977400559857,-0.7247005596054513,-1.7815522998609088,1.8578993149441443,-0.9787687991767063,-0.3663240708618572,-0.7736534921736569,-0.06021174432260786,-0.031014616503817188,-0.8565828319964349,-0.5993533416683728,-0.8886534583780604,0.13452371362489335,-0.7952171970366675,-0.6021197053614513,-0.901646147731245,0.2622974905314369,-0.616408185954465,-0.4222683557187358,-0.5794502696255152,-0.49468178134998075,undefined,1491900965298
903d185fccf839df,0.0345691450356857,-0.3350755740350758,1.150567058255625,1.0220318158702544,-0.8265083866796369,-1.742926525546479,1.8442401042312275,-1.050960261052047,-0.3829097994388568,-0.8769349254651975,-0.03051249506285338,-0.022911200277130284,-0.847879066399287,-0.591946677147938,-0.8802323733982832,0.02339038989974435,-0.7469778123833006,-0.6155202142547894,-0.9028915797675576,0.19876350424311406,-0.6349436716887404,-0.4162743092559214,-0.5607640212518727,-0.5040831113637171,undefined,1491900966254
903d185fccf839df,0.012392811495299591,-0.3215742290782839,1.1378068420250762,1.0196288267116556,-0.8642363241609334,-1.7286785689577322,1.8376129911226655,-1.0744564221021602,-0.41250387886025897,-0.8912389272263808,-0.035916566594485215,0.020514337089919673,-0.847879066399287,-0.6113892087475561,-0.88128500349908,0.017328511601333654,-0.7374822921586185,-0.6243103398132495,-0.9019330166101651,0.18581341177087257,-0.6412874857433382,-0.4104756203907922,-0.5595994279592237,-0.5076122542213846,undefined,1491900967310
903d185fccf839df,-0.0014673387395627991,-0.33624963325931095,1.073367877129279,0.9932004181313399,-0.8748717350227421,-1.711088154326479,1.81593024113823,-1.1990252943158626,-0.40451623763117844,-0.8948594381934218,-0.011926262820029723,0.015604453039756777,-0.8217677696078431,-0.6113892087475561,-0.8833902784251412,-0.010960008830329618,-0.7374822921586185,-0.6245953222842688,-0.9019190229884118,0.19662312012414565,-0.6400223118003607,-0.4093073667248442,-0.560286876672131,-0.5114480714514803,undefined,1491900967777
903d185fccf839df,-0.0028533520377785515,-0.3673614281597445,1.0382774095637441,0.9565492310581091,-0.8819894371413021,-1.704554638121508,1.7832996093831792,-1.3976749138065043,-0.44519451628400364,-0.8615144898171004,-0.015620369573747737,0.051640523337608796,-0.7173225824420678,-0.6123150337183764,-0.8812850182235475,0.007225456476573255,-0.7321095329460638,-0.6258809098673894,-0.9055013901572705,0.17233977169573877,-0.6457335828762685,-0.4101712802460306,-0.5614450186878698,-0.5049806074795296,undefined,1491900968312
903d185fccf839df,-0.027801591405662095,-0.35914321818604505,1.1014403528364864,1.0086412659770922,-0.9164773775888384,-1.7158328144207202,1.8124352318112835,-1.2301169964198917,-0.4645182904083491,-0.7936185441624654,-0.044037756581875545,0.02619961236626243,-0.7738970588235294,-0.6021308554331573,-0.88549556807567,-0.004898187061361993,-0.7276532025424155,-0.6259759045928269,-0.9088878466949869,0.1782527743163188,-0.6459342975558569,-0.4121960136695411,-0.5466739554735863,-0.5054800269108639,undefined,1491900970902
903d185fccf839df,-0.027801591405662095,-0.35914321818604505,1.1014403528364864,1.0086412659770922,-0.9164773775888384,-1.7158328144207202,1.8124352318112835,-1.2301169964198917,-0.4645182904083491,-0.7936185441624654,-0.044037756581875545,0.02619961236626243,-0.7738970588235294,-0.6021308554331573,-0.88549556807567,-0.004898187061361993,-0.7276532025424155,-0.6259759045928269,-0.9088878466949869,0.1782527743163188,-0.6459342975558569,-0.4121960136695411,-0.5466739554735863,-0.5054800269108639,undefined,1491900970939
903d185fccf839df,-0.05967993177003413,-0.3673614281597445,1.1856580340950587,1.0206231555661096,-0.9140499536659105,-1.7079343640857292,1.8069389383821763,-1.2580308900865513,-0.47208802818828405,-0.77647525136357,-0.018060544112595462,0.0013711291922606922,-0.7738970588235294,-0.5928725344956947,-0.882337663048812,-0.006918775474536844,-0.7221102980056413,-0.6339490807269567,-0.9109658996599354,0.17127727830029174,-0.650795637863535,-0.41248155091633104,-0.5377896865167802,-0.5035528767182677,undefined,1491900971327
903d185fccf839df,-0.2273876788757791,-0.37616671158754994,1.1575855583878512,1.0202421640411128,-0.9845069748384978,-1.7055725151772392,1.7754627982040798,-1.481443756049189,-0.45632354594715613,-0.6376366547716334,-0.03675636157749985,-0.040419036027850054,-0.2647267713903743,-0.5928725215449202,-0.8833902784251412,0.015307951452880338,-0.7281719107619866,-0.6283064277221537,-0.9095665373439077,0.20452252254385436,-0.6408431237132408,-0.41543839982642594,-0.5360885905398313,-0.5050906284935496,undefined,1491900972177
903d185fccf839df,-0.2717401044186832,-0.37616671158754994,1.1811918313458918,1.050591305522278,-1.0138623532620463,-1.7083512972755663,1.7771379866767487,-1.4825919441016597,-0.4682075749878831,-0.6989803043412084,-0.027402431456665835,0.03242059841117019,-0.2647267713903743,-0.5928725215449202,-0.8760218529950959,0.0395552102640293,-0.7294320766395436,-0.6266915271563955,-0.911287752807336,0.19429795439057546,-0.6417113645483556,-0.4173781315502558,-0.5354968785143167,-0.501510653679871,undefined,1491900972821
903d185fccf839df,-0.26481003792760444,-0.39906029651428404,1.1811918313458918,1.0308534641745801,-1.0393297381130298,-1.7038185969466968,1.786960313612445,-1.4183733535345646,-0.4646540858580414,-0.7199052778195182,-0.016299777376190726,0.02269279819354295,-0.26037488859180036,-0.5780591471763398,-0.863390262336599,0.035514033437679594,-0.7145217644361331,-0.6143169555983382,-0.9042629549685369,0.1884157488762849,-0.6342016999291881,-0.41860473904658485,-0.5417846194939174,-0.5108343321775745,undefined,1491900973668
903d185fccf839df,-0.30084648719744317,-0.37675372658567136,1.0338112068145773,1.007585296878956,-1.0531125700480317,-1.6996376124559587,1.799207318294101,-1.3320554715255841,-0.4882819924339078,-0.6729700703180856,-0.026079976232389338,0.008860933047613923,-0.2864861853832442,-0.5650974939786598,-0.8570744670073505,0.07794678582045296,-0.7180345815040505,-0.602626341713826,-0.9088178785801032,0.2085723144366548,-0.6259759262563798,-0.4080039687005606,-0.5377538969304273,-0.5003046926180332,undefined,1491900974281
903d185fccf839df,-0.2745121310151147,-0.383797906563128,0.9936163986198735,0.9727643008357493,-1.034557172646649,-1.6953727755508972,1.805873876883335,-1.2811538062510657,-0.4855881390191741,-0.7302946507033437,-0.01797022444739225,-0.08730430947525998,-0.7956564728163993,-0.5465808262021857,-0.8560218369065536,0.17089478556230678,-0.699453871628878,-0.5970343524411521,-0.9100563140930409,0.22521803413910063,-0.6190911066169773,-0.40531110058479997,-0.5140059461980444,-0.4922561674240564,undefined,1491900975169
903d185fccf839df,-0.3077765536885219,-0.4284111048763381,1.0082907743534795,1.0128310412204575,-1.0709171123438088,-1.684832968250007,1.8085247208697337,-1.2659473406448847,-0.4761716955940445,-0.6903176190948198,-0.01594521883476145,-0.0028974291272645214,-0.7913045900178254,-0.5475066252714569,-0.8570744670073505,0.21736877130087293,-0.6914934040022989,-0.5931839227628113,-0.9065998898196984,0.22304685264459634,-0.6162480173122133,-0.40655631122403446,-0.5118716483313754,-0.48779059179798356,undefined,1491900975812
903d185fccf839df,-0.30084648719744317,-0.39319014653307016,0.965543922912666,1.0304141419191892,-1.082385666368177,-1.695575419158536,1.84940768427388,-1.0153008401698993,-0.47378404377584565,-0.6060712480215259,-0.019374714188483955,0.06793769972877803,-0.7651932932263815,-0.533619153578344,-0.8886534362913591,0.275966358180292,-0.6978765849120827,-0.5917843418280777,-0.913512738825163,0.20483049061811684,-0.6189031116070038,-0.4060413076230279,-0.49452043505284227,-0.48424594371104696,undefined,1491900976679
903d185fccf839df,-0.2717401044186832,-0.41901880645041123,0.9215213039857469,1.04842999320034,-1.0360691740503298,-1.7164919869416762,1.822809831092129,-1.216673237808419,-0.48269496693214714,-0.4301521908272791,-0.01913026098529015,0.05644613790526848,-0.7738970588235294,-0.5604683043706858,-0.9139166470572881,0.17695655080183134,-0.6947152828498357,-0.6100295528560872,-0.9217829690734154,0.17406439610486876,-0.6365174959225706,-0.42068975020204225,-0.5062710795235855,-0.4737052709139974,undefined,1491900977301
903d185fccf839df,-0.2717401044186832,-0.416083789915789,0.8851543065232584,0.8856350018547763,-1.0580291378936335,-1.7222405491338308,1.8903195833725392,-0.7829099181336977,-0.48034387143251267,-0.4631143874808464,-0.03975882490760804,0.013968177421268388,-0.7738970588235294,-0.5530616268994766,-0.9191798196479737,0.18908019433976658,-0.69739516138813,-0.602170369414707,-0.9230214046842261,0.15695672301210983,-0.6366613593420377,-0.4245857976840113,-0.48669366806151565,-0.4689267099867829,undefined,1491900979666
903d185fccf839df,-0.2717401044186832,-0.416083789915789,0.8851543065232584,0.8856350018547763,-1.0580291378936335,-1.7222405491338308,1.8903195833725392,-0.7829099181336977,-0.48034387143251267,-0.4631143874808464,-0.03975882490760804,0.013968177421268388,-0.7738970588235294,-0.5530616268994766,-0.9191798196479737,0.18908019433976658,-0.69739516138813,-0.602170369414707,-0.9230214046842261,0.15695672301210983,-0.6366613593420377,-0.4245857976840113,-0.48669366806151565,-0.4689267099867829,undefined,1491900979703
903d185fccf839df,-0.31747871578685166,-0.4471955848162225,0.9215210498487976,1.0304141419191892,-1.0474040124307857,-1.7470376298408077,1.8897831034659558,-0.8171012808936547,-0.47772712705535403,-0.4477167038363742,-0.0744225674984409,-0.01677596404994093,-0.6128773952762924,-0.5317674453582181,-0.9191798196479737,0.18503897511633458,-0.7077701360181636,-0.5977309756255587,-0.9259180840079126,0.16105271076627894,-0.6351418765383275,-0.4237346727967994,-0.4670144674301205,-0.4680432606160494,undefined,1491900980315
903d185fccf839df,-0.3451989817511667,-0.4788944531707621,1.0216891284640306,1.1016490571673765,-1.0287971859220486,-1.7760529627717787,1.9177747577210478,-0.6732470247970213,-0.4365038086077089,-0.39132149494656276,-0.0751364690973581,-0.005393369857277311,-0.29518995098039214,-0.5317674453582181,-0.9244429701519578,0.1648329496609784,-0.7422210614877129,-0.5946594978091436,-0.9353217976671232,0.12200225330296882,-0.6447180944703772,-0.4230566770073409,-0.43930656560510295,-0.4854991014551418,undefined,1491900981215
903d185fccf839df,-0.35351495802423205,-0.5235076514839723,1.1199427934392572,1.2069737250265509,-1.0001000916608453,-1.7975658166065138,1.930371529929695,-0.6106089862111326,-0.4420141000071957,-0.4881360397411365,-0.09486398274449644,0.05422313732690752,-0.34741254456327986,-0.5586166285274963,-0.9254956149772221,0.1648329496609784,-0.7429819133229375,-0.5999285073030803,-0.9350349283477748,0.11183927946996747,-0.6479786137891139,-0.4198621742881696,-0.4455068727457679,-0.48563079517104313,undefined,1491900981883
903d185fccf839df,-0.29668841279738617,-0.6244742896168355,1.2960340315577814,1.2903989994852096,-0.9766178441997292,-1.8298257793090458,1.948398851004619,-0.5466208495300352,-0.4243245979263469,-0.49131644810443426,-0.08036682132097851,-0.04365299209279549,-0.5824142156862745,-0.5697266512096975,-0.9276008751788157,0.17089468663578142,-0.7623666855578521,-0.6025060159500555,-0.9507287753337906,0.07169553060294573,-0.6624466853587982,-0.42141577042003825,-0.44695612894363235,-0.5150685034247944,undefined,1491900982760
903d185fccf839df,-0.3341107718492115,-0.6127339604264155,1.3387806288616455,1.2866166287186305,-1.0031137996107826,-1.8503510353928543,1.933627229760254,-0.6761839812945991,-0.40321253231854076,-0.5416647419029128,-0.10236031717501178,-0.08178279391669796,-0.7086188168449198,-0.5826883497350883,-0.9349693153333286,0.14462682527909684,-0.7756794358478837,-0.6171034516856472,-0.9593558433343624,0.06895460717888377,-0.6724312916510334,-0.4249527057726226,-0.4309774842071742,-0.5246397182861139,undefined,1491900983306
903d185fccf839df,-0.32163661765986,-0.6056897512209665,1.3196405586527715,1.2716458072011305,-1.0231400506423938,-1.8553658874665042,1.925193441148406,-0.7518092586178359,-0.40152432180871306,-0.4708667666865914,-0.08177821259753798,-0.052614225749089964,-0.5780623328877006,-0.5808366738918986,-0.9286534831929112,0.14664738542755015,-0.7639962588999025,-0.6129617067365629,-0.9577255862961066,0.08755592855103304,-0.6663601505841501,-0.4280243206701922,-0.4281802409814369,-0.5247915937537877,undefined,1491900984189
903d185fccf839df,-0.31747871578685166,-0.5933624362604173,1.3196405586527715,1.2184269684062685,-1.0605799869981942,-1.8502019641843894,1.928835718421795,-0.7265065403254299,-0.40586763863498104,-0.39577004461529935,-0.08764569808506961,0.0002057358912726684,-0.7651932932263815,-0.5808366738918986,-0.9328640256827998,0.08804984094521337,-0.7933671371919935,-0.6165271544643312,-0.9578585255314856,0.06087042252530711,-0.6742316558460876,-0.4348545003706621,-0.43245070802601365,-0.5192829528731733,undefined,1491900984818
903d185fccf839df,-0.2939163171901352,-0.6291704096018066,1.0210507364470789,1.0338984215689795,-1.021298909030028,-1.8654072378783007,1.93473699948926,-0.700018667675504,-0.40376037728685155,-0.3450389277537612,-0.08204080863081213,0.03764258554185967,-0.7782489416221035,-0.5725041714498691,-0.9402324731995465,0.10219410116104499,-0.7728204133806079,-0.6195922994644121,-0.9653381158692887,0.0716031382340172,-0.6770934026467046,-0.44105477198699566,-0.41190693086027386,-0.5029117580894144,undefined,1491900985661
903d185fccf839df,-0.2786701709097619,-0.6315184695942921,1.146101363780357,1.0750455583573726,-1.0413868765524712,-1.8746426716883378,1.9811031057339124,-0.4093957808711525,-0.38813132425429364,-0.4032702453530355,-0.08489800380594038,0.0013808439123479547,-0.7826008244206774,-0.5669491698218494,-0.9402324805617803,0.08804984094521337,-0.7715658531397424,-0.6145259449654319,-0.9618537038814258,0.061532555100618135,-0.6765119696788618,-0.4388796912653833,-0.41271107699727516,-0.49294236719310397,undefined,1491900987958
903d185fccf839df,-0.2786701709097619,-0.6315184695942921,1.146101363780357,1.0750455583573726,-1.0413868765524712,-1.8746426716883378,1.9811031057339124,-0.4093957808711525,-0.38813132425429364,-0.4032702453530355,-0.08489800380594038,0.0013808439123479547,-0.7826008244206774,-0.5669491698218494,-0.9402324805617803,0.08804984094521337,-0.7715658531397424,-0.6145259449654319,-0.9618537038814258,0.061532555100618135,-0.6765119696788618,-0.4388796912653833,-0.41271107699727516,-0.49294236719310397,undefined,1491900987992
903d185fccf839df,-0.32856678766716796,-0.615082020418901,0.8653760984343823,0.8891192815045665,-1.047157153765358,-1.8876258511910635,1.958568301522299,-0.5755046642697265,-0.387609230191178,-0.40159545001390096,-0.07907647592113062,-0.043473644141505015,-0.6825075200534759,-0.5484324826192135,-0.9444430083272014,0.07996736010126705,-0.7822827725545576,-0.6192059905368078,-0.9636588812466521,0.0453333901276423,-0.6816163368566619,-0.43785833282296005,-0.38633181608210204,-0.5001338151385027,undefined,1491900988682
903d185fccf839df,-0.3299528009653837,-0.6103859004339299,0.910037109378253,0.9162594401142957,-1.0716268278941026,-1.8942851461842334,1.9541712659409955,-0.6223463348533562,-0.35508209465405977,-0.4281285794773626,-0.060320827755314776,-0.03397610502252782,-0.7347301136363636,-0.5576908359336123,-0.9444429862404999,0.07996736010126705,-0.7943442911378646,-0.6260519030507085,-0.969767097025767,0.044655859228045824,-0.6865206234914417,-0.44360409129001477,-0.3885408393978219,-0.5051299092590241,undefined,1491900989324
903d185fccf839df,-0.30361851379387467,-0.5763390013148971,0.9310913390901839,0.9162594401142957,-1.0785079589227624,-1.9034320685841553,1.9670178689549283,-0.5509824991066842,-0.3779842953551137,-0.3644080464073488,-0.05455960313225757,0.10648226712537649,-0.6999150512477719,-0.56231999316465,-0.9486535360926224,0.07996734596890628,-0.8644744767849262,-0.6594581800575479,-0.9605522971195345,0.008792879649021468,-0.7053138091740783,-0.4323805781882723,-0.4113304914348091,-0.4868161008649891,undefined,1491900990183
903d185fccf839df,-0.3036185482992844,-0.6039287500685908,1.0089286580965322,0.9095674125020554,-1.0394325957675927,-1.918332212128533,1.9471233863732942,-0.6929450892374824,-0.3748223659968708,-0.31795710504449237,-0.056387674958937414,0.13317690539966887,-0.5824142156862745,-0.5502841649377903,-0.9412850885758758,0.08400859345705983,-0.843164890881486,-0.6515356676998405,-0.9566690669484033,0.048859635252213575,-0.693364253440985,-0.4322525046554194,-0.39978492445761377,-0.49087851496462387,undefined,1491900990804
903d185fccf839df,-0.3036185482992844,-0.5962975258650204,0.8819646336710454,0.8637631985879108,-1.0513022904660676,-1.9342409158025764,1.9949122199581049,-0.3989995353594647,-0.39751609579321845,-0.2734694973649818,-0.056687688397090014,0.022573317122364808,-0.5693585672905526,-0.526212482582522,-0.9476009059918256,0.07794679995281373,-0.8102605241193587,-0.6362922723735547,-0.9565711116328323,0.07628426692860753,-0.6810967217622748,-0.4219079042549602,-0.402403816481706,-0.4914398021075164,undefined,1491900991705
903d185fccf839df,-0.3202506733724637,-0.566946775958951,0.8455976362085569,0.8265845811821242,-1.0841136629345,-1.9300040298066363,1.9950778960050317,-0.3946355135577115,-0.4067185765800563,-0.36778577771689264,-0.057042650483359894,-0.021377395588236637,-0.5563029188948306,-0.5308416333381724,-0.9507588036564498,0.0840086075894206,-0.8202916344340108,-0.6333474534030041,-0.958733126450642,0.09203687649899805,-0.6778351494465401,-0.4256904205816093,-0.40799620275242615,-0.4901651815110571,undefined,1491900992306
903d185fccf839df,-0.2800562877242069,-0.5710558517178085,0.9196068903457405,0.9757887997101883,-1.0579674206265994,-1.9427403097864617,2.0093393311873626,-0.31422489101801754,-0.38470151049199736,-0.32890575841241443,-0.02550735678213237,-0.03159576798350959,-0.5301916221033868,-0.5317674712597671,-0.9560219688849015,0.07188490752204227,-0.8432270339966907,-0.6267738577772846,-0.9564241790937869,0.11896875689797526,-0.6702048533849024,-0.43225607640892816,-0.4120599199906901,-0.4885668565570868,undefined,1491900993167
903d185fccf839df,-0.2911443941099329,-0.6585212033498645,0.880688357911041,0.8945593479430847,-1.0610017032954795,-1.9588912543427863,1.953377060057366,-0.7042245673757211,-0.37876676749248867,-0.38586537438642904,0.0050897012058930095,-0.024392608692446686,-0.4779690285204991,-0.5317674842105417,-0.9602324966503225,0.0961322228626343,-0.8347998990808805,-0.6335121101933029,-0.9534225473194482,0.13741609471763672,-0.6692262404865003,-0.43139106395721794,-0.4039783424881159,-0.49155327864076853,undefined,1491900993882
903d185fccf839df,-0.2925304074081487,-0.6796537432822345,0.749257876599438,0.7965673494251164,-1.0473422976604017,-1.9628043762795273,1.9630337088510916,-0.6455022034151576,-0.37588118374343643,-0.40004641847443445,0.022723685248055393,0.035025477192092064,-0.517135973707665,-0.5391741487309765,-0.9665482993418049,0.10421466130949832,-0.8522498334297891,-0.6366342509667139,-0.9472513600528142,0.12243340706954055,-0.6712310405120067,-0.430912693665026,-0.41878459787974454,-0.4951878298422231,undefined,1491900994779
903d185fccf839df,-0.30223253500106867,-0.6843498632672056,0.7486199928563853,0.7859162292248372,-1.0529788606537471,-1.9682198575294547,1.9465369354870528,-0.7672511015810682,-0.38162227915156066,-0.3324558026741854,0.03609476736046004,-0.06307636642382355,-0.7347301136363636,-0.5391741487309765,-0.9665482772551035,0.09613219459791277,-0.8581346756196482,-0.6318782103092859,-0.9438509099973345,0.11644341177747267,-0.6690437127712192,-0.4343200515201004,-0.4198524990436282,-0.49581930002730495,undefined,1491900995340
903d185fccf839df,-0.3036185482992844,-0.7225058966010804,0.7435159063641656,0.7966228189271612,-1.0495125799615774,-1.975088784348511,1.9383056443607105,-0.8321470903496345,-0.3677773190153953,-0.3155299224035781,0.047886291529638476,-0.0420251647570102,-0.8087121212121212,-0.5438033253881759,-0.9739167247718501,0.0860291677378739,-0.873049349185138,-0.6383188139738268,-0.9465516791303072,0.08884939732233037,-0.6780892792766509,-0.4299644429216039,-0.4255263130517839,-0.49089970178766124,undefined,1491900996184
903d185fccf839df,-0.2925303038919195,-0.723679911983327,0.7339456171227793,0.767802744267038,-1.0236646234739504,-1.981140147772177,1.9300349004210433,-0.8870659439931458,-0.3522969475379416,-0.34071253134186325,0.06263005173047959,-0.008848579961377414,-0.9175091911764707,-0.5438033253881759,-0.97602197761121,0.1284618635912042,-0.8776050355740945,-0.6323848457204272,-0.9341043526846885,0.133812858940924,-0.6641372093728077,-0.4331340241680632,-0.42852430931344415,-0.4879889792055014,undefined,1491900996917
903d185fccf839df,-0.2856002719062504,-0.720744822378724,0.7454298117302732,0.767802744267038,-0.9873252560310913,-1.994512310186684,1.9309211426170092,-0.887453679448423,-0.34718597785196975,-0.3614592586304031,0.08525548875813224,0.0436743548872569,-0.8565828319964349,-0.5623200061154245,-0.9865483080681133,0.1708947290328637,-0.8797481370265716,-0.6417639354395248,-0.9302491101546729,0.13367427361848533,-0.668586921046772,-0.4310981967106635,-0.4242735150002634,-0.48400439582092464,undefined,1491900997688
903d185fccf839df,-0.2661960512258202,-0.7677060952984157,0.6778006657083641,0.7065996468114676,-0.9836532620623253,-2.003258603671272,1.9292564765007605,-0.9112848967160768,-0.3128010015330688,-0.39103184967951665,0.1126002614646167,0.02699101010352969,-0.9044535427807487,-0.5502841519870159,-0.996022001061986,0.15877100070076386,-0.8890024995888136,-0.6447087541443154,-0.9394359224197899,0.12639080834351246,-0.6751172388950338,-0.43266071129426875,-0.4052803220601237,-0.487491413643483,undefined,1491900998326
903d185fccf839df,-0.3285667186563485,-0.7659450503040516,0.6778006657083641,0.7065996468114676,-0.9794464138880903,-2.0033145055031056,1.9309711104541012,-0.9038486499699164,-0.30150613777737845,-0.45001921507355525,0.14873011521194124,0.04779686942666799,-0.8261196524064172,-0.5688008391896517,-0.9981272465391121,0.11835889326060842,-0.8973087027815585,-0.6453293829236797,-0.93772170415873,0.09346893160240728,-0.681645451822137,-0.4435811636980756,-0.41519837973062973,-0.49772820817995284,undefined,1491900999168
903d185fccf839df,-0.3008464526920334,-0.7941217848278743,0.6197418089278413,0.6916154343819041,-0.9532693152552737,-2.002364175962019,1.9172961209204022,-0.987745001112826,-0.2711336587173082,-0.3518727390806358,0.17007133626839507,0.0387619996107505,-0.8304715352049912,-0.5752816657884917,-0.996022001061986,0.0981528395405307,-0.9160777029876479,-0.657412639437997,-0.9354827249228759,0.09625604975700426,-0.6867353629422164,-0.4473576911416598,-0.44656000849407174,-0.4967080243201114,undefined,1491900999784
903d185fccf839df,-0.27174013892409293,-0.7718151856712693,0.6101715196864549,0.6600038772807577,-0.9723698555259365,-2.0081919326237263,1.9103639516575794,-1.0410031044939592,-0.2535658788470944,-0.2825194624765138,0.17074700384825775,0.041978566186099006,-0.8957497771836007,-0.5910208521771179,-0.9991798913643765,0.11633822005326895,-0.9087748636591023,-0.662175013028029,-0.944179760781415,0.10669619636192805,-0.6909360451049926,-0.4507549619933506,-0.45924852807105937,-0.5024643586017992,undefined,1491901000670
903d185fccf839df,-0.2467919340616191,-0.7847295156299399,0.5948592602097962,0.6342928920993257,-0.9447013298722946,-2.0152402106301555,1.9191422429518818,-0.9849914593833357,-0.24847809576474925,-0.24025673340741452,0.17021361036998642,0.04355789071353478,-0.865286597593583,-0.5910208521771179,-1.001285158928204,0.0981528395405307,-0.9232536526731404,-0.6647778534164936,-0.9445715824474255,0.12073957801659979,-0.6904271423291771,-0.4518190853998683,-0.46306617362457203,-0.4999607422248041,undefined,1491901001314
903d185fccf839df,-0.2634241281456179,-0.7952958440521095,0.5623208358903712,0.658019370306386,-0.9159013794129078,-2.0159413114458187,1.9028900418337233,-1.0885901992751732,-0.228698184002898,-0.1628822674577601,0.18240833023899908,0.11702207245621551,-0.8304715352049912,-0.59565002235893,-0.9960219936997522,0.12037953820322633,-0.8808763779509351,-0.6647081911523124,-0.940170588742434,0.16085252852533702,-0.6830289523484422,-0.4368992733404836,-0.45564114288370194,-0.4834000484280878,undefined,1491901002148
903d185fccf839df,-0.21214149808999608,-0.8369739381467203,0.5501982492659256,0.5417150892693122,-0.8807448664592982,-2.03081117482283,1.8837424213407208,-1.2294142271547481,-0.19461070025314967,-0.056677354665692216,0.19807051441089682,0.07880774977185488,-0.7129706996434938,-0.6049083562471671,-1.0002325435518746,0.08602925253203851,-0.9094183540525523,-0.6773550801688274,-0.9462228303281545,0.125851861258576,-0.6970758461024287,-0.446712847509883,-0.49194034411322246,-0.4877253522541476,undefined,1491901002803
903d185fccf839df,-0.2772842611277754,-0.8422570731298128,0.5470083222767631,0.6342928920993257,-0.8589391879215321,-2.0298096019496374,1.8843314962690552,-1.2223396619593938,-0.18572912703719616,0.022387684926944814,0.21717328716700934,-0.03648564078048437,-0.7216744652406417,-0.6039825183255723,-1.0065483462433569,0.10219404463160192,-0.9317915723288475,-0.6670007170791182,-0.9410661806325216,0.11099236292415053,-0.694825092122252,-0.4449929764231361,-0.495765062352258,-0.480661722180848,undefined,1491901003691
903d185fccf839df,-0.31747868128144197,-0.8510622981016336,0.5348859897892669,0.5074363009966226,-0.8518111995077782,-2.0345286407273355,1.877572894034833,-1.2716623223630694,-0.1803923729488558,0.08700656155964707,0.2091459416909359,0.02928603861421128,-0.7303782308377896,-0.6049083627225543,-1.0033904264920313,0.13856494698068614,-0.9160777029876479,-0.6609654217933203,-0.9354547386886842,0.12023143029962083,-0.689259485710675,-0.4357037777363401,-0.4948436082904076,-0.4778407771551317,undefined,1491901004297
903d185fccf839df,-0.2800562877242069,-0.8416700581316914,0.5629589737703734,0.6502056178223334,-0.8596488994307734,-2.033315106897765,1.8893780948771615,-1.1914797758665945,-0.18363006411578045,0.05551924187226916,0.22921930578454536,-0.0057993605600432235,-0.7347301136363636,-0.5882433319369461,-0.9991798913643765,0.10017334315954093,-0.9289037460398113,-0.6604017893077325,-0.9264778303155563,0.11545791229204597,-0.6891660809325926,-0.4274129611406286,-0.4793257651842951,-0.4627246900514693,undefined,1491901005261
903d185fccf839df,-0.3022325004956589,-0.8393219689112136,0.5629589737703734,0.6502056178223334,-0.8724237359247524,-2.0308461132344178,1.8999867325247273,-1.1216034724493447,-0.18142080229139915,0.0798710745824654,0.232825343485716,0.019100451587737963,-0.7651932932263815,-0.5910208392263433,-0.9928641033973618,0.10017334315954093,-0.9413551641437081,-0.6586855615324027,-0.9221048237378473,0.11759829630331599,-0.6870130312550774,-0.42756977226458914,-0.5048033598252477,-0.46634853608211535,undefined,1491901005915
903d185fccf839df,-0.2634241281456179,-0.8234725785759323,0.6561082981164309,0.6659044492004722,-0.8670648862573169,-2.0196937153682315,1.923460380239189,-0.9551824132339666,-0.1760426361216371,0.19178997552955973,0.23790649189609867,0.05660812823908214,-0.6999150512477719,-0.5947241714865606,-0.9907588284713006,0.08400849453053444,-0.9485451179680945,-0.6519789746154411,-0.9149610798449939,0.1165666007949726,-0.6820030508517018,-0.4229305337422016,-0.5082432276123124,-0.45891478764201227,undefined,1491901006667
903d185fccf839df,-0.31054858028495347,-0.8393219981392058,0.6561082981164309,0.6659044492004722,-0.8742031612543403,-2.0195749239212213,1.9311683441425918,-0.9049890583528906,-0.1776011879499417,0.17870062706658965,0.25408268200694334,-0.0028669682195495982,-0.6128773952762924,-0.6049083432963925,-1.0076009616196862,0.10421460478005524,-0.9450408772239833,-0.6532962267397754,-0.9126591288769382,0.1358608538142196,-0.6783043144891943,-0.41604462999847847,-0.5071647232577712,-0.45283619020830873,undefined,1491901007307
903d185fccf839df,-0.32163668667067946,-0.8716078230358821,0.6299499819122805,0.6654618345759395,-0.8940648420615778,-2.0216526053416053,1.9470734132985934,-0.8060516626806197,-0.16741768027101642,0.24242735449180125,0.25793644566649787,0.015190015295895183,-0.7826008244206774,-0.6317575264656707,-1.0160220171505283,0.10017334315954093,-0.9576084452691451,-0.6647271896234612,-0.9174169605911658,0.11601225783589085,-0.6892490983514474,-0.4185718481282951,-0.5098899460091946,-0.4584609526424616,undefined,1491901010340
903d185fccf839df,-0.32163668667067946,-0.8716078230358821,0.6299499819122805,0.6654618345759395,-0.8940648420615778,-2.0216526053416053,1.9470734132985934,-0.8060516626806197,-0.16741768027101642,0.24242735449180125,0.25793644566649787,0.015190015295895183,-0.7826008244206774,-0.6317575264656707,-1.0160220171505283,0.10017334315954093,-0.9576084452691451,-0.6647271896234612,-0.9174169605911658,0.11601225783589085,-0.6892490983514474,-0.4185718481282951,-0.5098899460091946,-0.4584609526424616,undefined,1491901011735
903d185fccf839df,-0.32163668667067946,-0.8716078230358821,0.6293118440322782,0.660348810713219,-0.8950934117894309,-2.0218133228653055,1.9632914264479633,-0.6978363547971742,-0.16720154818273342,0.23950274225241852,0.25331193341099145,0.021960113148778593,-0.7913045900178254,-0.626202524837651,-1.0160220024260607,0.08400849453053444,-0.9612950238613405,-0.6613580637421154,-0.9152199619391869,0.12606744277962767,-0.6857233005944445,-0.41731577444518675,-0.5049769506768158,-0.45883014218052526,undefined,1491901011824
903d185fccf839df,-0.3618310723189363,-0.8716078230358821,0.6229317359170038,0.6637096345878326,-0.8838100035405961,-2.022034600317827,1.9538504215382566,-0.7565659520123192,-0.17855596928722153,0.22463986772868094,0.24535108378127723,-0.020148307359152667,-0.8261196524064172,-0.6150925215816117,-1.0170746325268576,0.08400849453053444,-0.9682356064998467,-0.6647651871581823,-0.9164444038915419,0.129609084518771,-0.6862032561481245,-0.4206969055518473,-0.510655375856056,-0.45581138851307146,undefined,1491901012703
903d185fccf839df,-0.31332060688138497,-0.8692597630433966,0.6210175764139467,0.660348810713219,-0.8448169250655007,-2.0229686253506496,1.958941727329006,-0.7115942537471005,-0.18672858677612048,0.25946993754332415,0.22796209351107305,-0.05195203889647853,-0.843527183600713,-0.6317575264656707,-1.0097062218212798,0.07390546767049558,-0.9700392735363846,-0.6694642310456805,-0.9156187802447964,0.13128751449353698,-0.688760757527129,-0.4190000221384271,-0.5413941871744733,-0.45055119902480417,undefined,1491901014769
903d185fccf839df,-0.31332060688138497,-0.8692597630433966,0.6210175764139467,0.660348810713219,-0.8448169250655007,-2.0229686253506496,1.958941727329006,-0.7115942537471005,-0.18672858677612048,0.25946993754332415,0.22796209351107305,-0.05195203889647853,-0.843527183600713,-0.6317575264656707,-1.0097062218212798,0.07390546767049558,-0.9700392735363846,-0.6694642310456805,-0.9156187802447964,0.13128751449353698,-0.688760757527129,-0.4190000221384271,-0.5413941871744733,-0.45055119902480417,undefined,1491901014802
903d185fccf839df,-0.3147066546850104,-0.8639766280603042,0.6331401630383924,0.6831288355208007,-0.793799865130013,-2.026436862560084,1.9606537309551224,-0.6840510007394437,-0.20916065018458568,0.4046838979134027,0.19074271531917175,-0.026649664014714112,-0.8609347147950089,-0.6549033708993444,-1.001285158928204,0.07592614087783504,-0.9771418222874253,-0.6667157337665257,-0.912589161220834,0.12286456402667972,-0.6887939619539049,-0.4114151032729514,-0.5420768381335487,-0.4385315133859172,undefined,1491901015820
903d185fccf839df,-0.3022323969794297,-0.8628025980640613,0.5687009440056456,0.624222455699483,-0.7722616145512045,-2.0255470932903066,1.9479754374579061,-0.7627973266636764,-0.23609323490281253,0.34403436481028343,0.1854792269056406,-0.10400143211271266,-0.852230949197861,-0.6613842233997334,-1.0065483241566555,-0.0008569254408476836,-0.981153741737787,-0.6690715893183521,-0.9146952012029579,0.11481117691018651,-0.6927189357909307,-0.40806148604187126,-0.5383245844812586,-0.4450961013748052,undefined,1491901016315
903d185fccf839df,-0.2620380113311729,-0.866911703050911,0.6235696196600565,0.6758733235692397,-0.7554342130999845,-2.021135514469455,1.977508160732782,-0.5621767431329423,-0.22270961480004242,0.4866459679906282,0.20103762163302424,-0.13432954279301346,-0.9218610739750446,-0.6863817177750474,-1.0149694091364327,-0.008939335622990159,-0.9793500747012492,-0.6766331243736747,-0.9198028735772436,0.11759829414934635,-0.6971087331541712,-0.4136247407264812,-0.5275859996319923,-0.4341160599409886,undefined,1491901017220
903d185fccf839df,-0.2842142241026249,-0.8651506580565469,0.6880088386928032,0.7347797033905574,-0.7813953130412395,-2.0218272982793204,1.9744549604827715,-0.5865116329359175,-0.21202634632726258,0.5884788100464995,0.20780334048133875,-0.05792117802249349,-0.9479723707664884,-0.6882333871428498,-1.0023377890290006,-0.002877655177630215,-0.9926164972834013,-0.6753158716236973,-0.9159826147284708,0.09833483815561503,-0.6979469939041448,-0.4124313617952304,-0.543663380276598,-0.42886975120577925,undefined,1491901017829
903d185fccf839df,-0.2481778783490154,-0.8522363280978764,0.7205475171491776,0.7745701182885031,-0.7853244492899292,-2.0176276796755075,1.981860497511617,-0.5313947760465919,-0.21316263633932456,0.4953183255279672,0.21361189235833203,-0.09906490805572399,-0.9262129567736186,-0.687307549221255,-1.0107588666465441,-0.0028775986481871427,-0.9729840826623665,-0.6740239511356559,-0.9191521699516154,0.11893795840506802,-0.6935466921725983,-0.4105955279305129,-0.5523301232514624,-0.43057873335292285,undefined,1491901018699
903d185fccf839df,-0.2911442905937037,-0.8680857330471539,0.7205475171491776,0.7745701182885031,-0.8149781138218263,-2.0189786385722703,1.9839643402825335,-0.5247664443496957,-0.22999645766121662,0.41271377622361494,0.2019860082933373,-0.0423378942535117,-0.9175091911764707,-0.6947142331678515,-1.0065483388811232,0.02339030510557974,-0.9768144422519079,-0.6784823436395666,-0.9154858410155343,0.1217404767955985,-0.6934431923205309,-0.4125116637720853,-0.5568514002176242,-0.42872355789705774,undefined,1491901019484
903d185fccf839df,-0.2481778783490154,-0.8592805080753331,0.7441540442441678,0.7805614561072104,-0.8237620992567212,-2.017918834830982,1.9792464686786657,-0.5566131668902009,-0.22734159148569635,0.43311751097778645,0.20516841496026214,-0.0205584756042955,-0.865286597593583,-0.6937883822954822,-1.0118115114718087,0.013287221716097806,-0.9729840826623665,-0.6773424137554893,-0.9162414966391519,0.13033280965079705,-0.691533413350726,-0.41331870340487287,-0.555849383115169,-0.43249473915259373,undefined,1491901020300
903d185fccf839df,-0.25510794484009414,-0.8563454330847261,0.6816287305775287,0.7659869175311798,-0.826971236300611,-2.016092711508882,1.9990436501034279,-0.42445681971610494,-0.22200143936541264,0.46107201294226324,0.21360144249119428,-0.0306554806570375,-0.8391753008021391,-0.7039725476299268,-1.0128641342103717,-0.010960037095051153,-0.9729840826623665,-0.6709144760613531,-0.9226295849206216,0.13746229107711108,-0.6897200073974644,-0.4142618177111305,-0.5502745192677279,-0.43472972518683506,undefined,1491901020764
903d185fccf839df,-0.1761051178309768,-0.8052750697921808,0.8436839849793987,0.9225967701542311,-0.8826477168164786,-2.0004937967527447,1.9367198828235888,-0.8318327980515853,-0.2356349237887653,0.5357430165338559,0.18407851340620968,-0.06028243771919274,-0.8391753008021391,-0.7169342396799303,-0.9886535461830056,-0.08168133817420933,-0.9661877400036752,-0.6709651398709956,-0.9168082381060656,0.1382476123602887,-0.6895155589815668,-0.4150948495128546,-0.5419448116048086,-0.42660232344594234,undefined,1491901021626
903d185fccf839df,-0.1858072454238968,-0.761248886477092,0.8768605471788258,0.8846802036237676,-0.7713050506181613,-1.98834215604085,1.9424554878441271,-0.7503195855445004,-0.2166592426439914,0.7590740269497831,0.18843797217927086,-0.06636613189687166,-0.8391753008021391,-0.7160084147091101,-0.9949693635989554,-0.03520726764147858,-0.9373950140765457,-0.6590022089322022,-0.9317114452489198,0.12466618081112653,-0.690619580027801,-0.4024433582837502,-0.5185014173080932,-0.40691126790499543,undefined,1491901022315
903d185fccf839df,-0.16640302474346652,-0.7671190949142905,0.9451278310807372,1.0005273724856876,-0.8022958578896129,-1.9924649097744838,1.916367807106627,-0.9309721080596899,-0.22566341871900855,0.8426971414683991,0.13830362968082385,-0.014182720881356102,-0.7564895276292335,-0.7123050759735055,-0.996022001061986,-0.07764002002425195,-0.9461145573251709,-0.6524222800582886,-0.9344541950269384,0.14574665433680617,-0.6850976872747423,-0.39796447676838814,-0.4921344229462015,-0.3983845839467904,undefined,1491901023161
903d185fccf839df,-0.15808694495417203,-0.7694671549067761,1.1480152691464647,1.1173653627304412,-0.7796364639990032,-1.9811075396145863,1.9189555379049423,-0.8997727755820152,-0.24635636730577143,0.9848344743841024,0.1448645893036927,-0.09293299611217311,-0.8261196524064172,-0.7178600905522997,-0.9833903956790215,-0.06753699316421309,-0.9402654733752398,-0.6651514966505265,-0.9240849207449331,0.15623299537609422,-0.6875379277913374,-0.39205449936244247,-0.4781018066951578,-0.38628926027653754,undefined,1491901023756
903d185fccf839df,-0.15531488385233078,-0.7606619299349553,1.2577531287291852,1.3084709353486752,-0.8927277049874991,-1.9609829131736725,1.876444721966712,-1.1906137056115267,-0.2603145127366449,1.006634064116511,0.13314724311071208,-0.09059782233352039,-0.6346368092691622,-0.7326734454947182,-0.9844430184175845,-0.07561940334635556,-0.9343200285865763,-0.6567223485439412,-0.9324181218689983,0.13983365260473846,-0.6860876185143018,-0.4102308905773225,-0.4881226440602188,-0.39323941188187433,undefined,1491901024621
903d185fccf839df,-0.3091624979759182,-0.8011659794193272,1.2660473963475167,1.3084709353486752,-0.9236670813271208,-1.9534850922999125,1.886235485499475,-1.1226624298733408,-0.2767360384902877,0.9923271607492413,0.09568877855269536,-0.13888470902927236,-0.5214878565062389,-0.7252667550727344,-0.97602197761121,-0.06753696489949156,-0.9306306848414952,-0.644993736078278,-0.9241269014144472,0.1663959700437587,-0.6735732351690413,-0.3986426174917069,-0.4867893376882887,-0.3739270288364575,undefined,1491901025262
903d185fccf839df,-0.148384817361252,-0.8316907885496316,1.4249122154863252,1.478838492852424,-0.8549071944183838,-1.949078171346364,1.9137458904345677,-0.9205644373681539,-0.28858181442516523,1.1088699665097757,0.0776059929453488,-0.10593522072061538,-0.49537655971479505,-0.7224892672094991,-0.9949693635989554,-0.11199033396016131,-0.9444237498072645,-0.6572226512273351,-0.9340553758955257,0.18388860520157418,-0.6771700103842722,-0.41942594118993093,-0.4714566748575024,-0.3979969126152181,undefined,1491901026137
903d185fccf839df,-0.29946040488840797,-0.7988178901988493,1.401305688391335,1.467628866167014,-0.9495664609365434,-1.9399545414899317,1.8760923214936915,-1.1788542669914082,-0.3189209956452513,0.7820108895314826,0.042855826408348965,-0.012882502653866094,-0.5345435049019608,-0.7261925800435547,-0.9939167261359249,-0.10188727883540091,-0.9343307784051114,-0.6649741737846263,-0.9377077116013454,0.15985163163106175,-0.6873701032664441,-0.4239558448315094,-0.4620839740354085,-0.39848183865586295,undefined,1491901026757
903d185fccf839df,-0.2980744260956019,-0.6696744737001747,1.3521787288352471,1.328158417645403,-0.9050499627856952,-1.9121946685241147,1.9250803444104039,-0.8116231414159517,-0.39144310425763873,0.4684412534006778,0.06095627368603326,-0.002546477124960994,-0.5345435049019608,-0.7086017372379008,-0.9833903956790215,-0.06753699316421309,-0.9238663107978559,-0.6691032522760793,-0.9354687321942136,0.17046116194363337,-0.6831544115719247,-0.4494741254794948,-0.4964539173305004,-0.4053048816974052,undefined,1491901027631
903d185fccf839df,-0.3119345245723497,-0.6092118704376871,1.4249122154863252,1.3375030986596472,-0.9777904163068036,-1.908055610099194,1.9335088744628457,-0.7598985542209515,-0.4271748266316341,0.3653475510390223,0.005814896580550453,-0.05963499152685735,-0.6259330436720143,-0.7086017631394499,-1.0212852118279152,0.08804984094521337,-0.8727625578041086,-0.6725230419061643,-0.948790660329738,0.20675529889712857,-0.6840847806249709,-0.45968166266158134,-0.4887176087047616,-0.41306631949391415,undefined,1491901028250
903d185fccf839df,-0.3479710083475982,-0.545814221412585,1.470848739779352,1.5538526036680833,-1.0114966464601147,-1.863674285186809,1.890382682419079,-0.9743895189865521,-0.45078703309711166,0.04819364910229702,-0.013094904900176958,0.022077521487492625,-0.6650999888591801,-0.6530517339084784,-1.0002325214651733,0.16079173043754638,-0.8560063695637866,-0.6469442824263981,-0.9346081244747333,0.18456613894171817,-0.6711166940639124,-0.44331410618175676,-0.5143635933636894,-0.4056772557581668,undefined,1491901029139
903d185fccf839df,-0.2911443250991134,-0.49885296310688926,1.5557048130548756,1.6371174237338126,-0.9933218188869046,-1.8364501367119646,1.8778358796188066,-1.016216544352172,-0.45194268197375387,0.02448346129455433,-0.026696617922957508,0.04101201925394296,-0.7260263480392157,-0.6299058506224812,-1.0012851662904376,0.22747168510202564,-0.829166160407428,-0.6419729214347888,-0.9263868715784135,0.224648292653799,-0.6584286306755808,-0.4386490997337786,-0.520568849973917,-0.4070163964743875,undefined,1491901029814
903d185fccf839df,-0.28144226651701293,-0.4677411389784634,1.4561746181826953,1.5949387030829598,-0.9588647343961881,-1.8573177910844747,1.871229805985475,-1.0628440822721448,-0.47987493876861764,-0.1527336246361621,-0.026477105097622484,-0.013783272567070393,-0.7086188168449198,-0.6512000321637397,-0.996022001061986,0.1486680586348896,-0.8479446941333091,-0.63575397077681,-0.9187673444113709,0.21106686568182204,-0.6570218164703229,-0.4550090293392376,-0.5534281986156259,-0.44403583108041195,undefined,1491901030659
903d185fccf839df,-0.32302266546348546,-0.4501306890348218,1.3528171208521986,1.3272421767396887,-0.9766178463462885,-1.841520890298518,1.8314145480251782,-1.3150102716008134,-0.468355897955439,-0.25076081772351816,-0.01605796578113695,-0.015284031745631277,-0.7086188168449198,-0.6512000710160634,-0.9970746385250167,-0.006918832003979916,-0.859095972334196,-0.6596798321228767,-0.9258761045312255,0.1999953808077163,-0.6703550191195226,-0.44602404587306976,-0.5848056442460975,-0.46000423645510524,undefined,1491901031265
903d185fccf839df,-0.41034164127271683,-0.42547597142974647,1.5627225507762534,1.6237449701142042,-1.0131423559077282,-1.8242938363075234,1.8722501802045879,-1.0358084830768832,-0.46030167931050836,-0.14423456717778396,-0.023648435440361056,-0.03070582268477947,-0.7086188168449198,-0.6780492282837924,-0.9918114806587988,0.003184336179666626,-0.8694545960559158,-0.666703067065281,-0.9343632364549563,0.17685151714039987,-0.6793385698772209,-0.445109583195076,-0.5932732046471153,-0.46363021620925865,undefined,1491901032330
903d185fccf839df,-0.3285667186563485,-0.48769964891459056,1.4051337532604997,1.325785314164857,-0.9559847367787797,-1.8584311665417732,1.9187083321892724,-0.7501288922310058,-0.4874726558349869,-0.13375421606364776,-0.06128167044369461,-0.04567491064283723,-0.7782489416221035,-0.6836042169610376,-1.0076009837063875,-0.06551640475103823,-0.8631606114678008,-0.6602877951366929,-0.9386732719549894,0.21140562826414852,-0.6731410015110537,-0.44065842520235365,-0.5946696422480219,-0.4769721359061031,undefined,1491901032751
903d185fccf839df,-0.36321708561715205,-0.4794814389408912,1.2354228773941993,1.1724457615852686,-0.9414921877330777,-1.8548651022555709,2.0017707515813807,-0.20693681068463463,-0.4449166525396938,-0.1826618513878463,-0.05237933996632274,-0.04509165049228267,-0.8304715352049912,-0.6845300548826324,-1.0160220465994634,-0.07561940334635556,-0.8846286881144986,-0.6891153554759477,-0.9497282327180622,0.17942305859345223,-0.6953290812481627,-0.4410638283115462,-0.5865314533729936,-0.49344809372994536,undefined,1491901033626
