UUID,iqrAccX,iqrAccY,iqrAccZ,iqrAccXYZ,meanAccX,meanAccY,meanAccZ,meanAccXYZ, covarianceAccXY, covarianceAccXZ, covarianceAccYZ,pressureDerivative, pressureIQR, iqrGyroX, iqrGyroY, iqrGyroZ, iqrGyroMagnitude, meanGyroX, meanGyroY, meanGyroZ, meanGyroMagnitude, covarianceGyroXY, covarianceGyroXZ, covarianceGyroYZ, class, timestamp 
903d185fccf839df,-0.8989117429586864,-0.9012521535109931,-0.7676139078890979,-0.8084035855171646,-1.1291010812474769,-1.8192339770864145,1.919375825788179,-0.8953568890671958,-0.2873120080639484,-0.5869160802646968,0.07474983945992657,-0.2733306029110461,0.6731039717023173,-0.9039526839432831,-1.0423378432927866,-0.6898841882783112,-1.1285733745113369,-0.9641234325086716,-0.9560996354431068,-0.7482314211244271,-0.9902124015764823,-0.44996453332142455,-0.6894998817385687,-0.5490163005700376,undefined,1486739445395
903d185fccf839df,-0.643192030647307,-0.5960040622079482,-0.5679163968125328,-0.6920419929698257,-0.9132103758863745,-1.6560269781793266,1.9041323264741068,-0.6625402915431697,-0.21637149629262167,-0.5317567522745897,0.05315075008079356,-0.30368767437510447,0.7731972760695187,-0.9576510567572268,-1.0781273624289176,-0.6959460383120004,-1.1475833068040442,-0.9852142702603299,-0.9842181074706059,-0.709290785633466,-1.0104128199230458,-0.4580679540355727,-0.6872696909876634,-0.5091991720952256,undefined,1486739446799
903d185fccf839df,-0.2758981788187402,-0.5211595914914867,-0.3442936709064007,-0.43884422291448333,-0.692388873315512,-1.601493224783668,1.8579016606864946,-0.7698746841266855,-0.15655658798101052,-0.49649593509559814,-0.006772542596564907,-0.12065428960210386,0.0464328487076649,-0.8521059675463672,-1.036022047963538,-0.7020078600809679,-1.0701357717917717,-0.853890353545264,-0.9666242091391639,-0.7137625886655141,-0.9365405421801469,-0.4427808497190204,-0.6772394386542319,-0.5177833955272771,undefined,1486739448296
903d185fccf839df,-0.09848826961466546,-0.4606969297730144,-0.1394913109267678,-0.12323414691709951,-0.6275315743456487,-1.6499968685096424,1.846777880810234,-0.8860590119947418,-0.19583673900819235,-0.35389532171533344,0.021346812197807128,-0.17710247893029563,-0.1124108734402852,-0.8224792965138537,-0.9960219863375185,-0.6898842165430328,-1.074609340658505,-0.8491279953575305,-0.9671595727569925,-0.6733314014013888,-0.9277951995197062,-0.4545421953636767,-0.6638425156850255,-0.5237757389610593,undefined,1486739449800
903d185fccf839df,-0.10126029621109697,-0.4284110756483458,-0.03294388660710862,0.024429665077075644,-0.5905647801136333,-1.7269572620627605,1.8628118024795401,-0.8879484733447525,-0.2083521365919611,-0.41551120615455817,0.008679496675310802,-0.03194178175945479,-0.19074476381461675,-0.750264262398823,-1.000232536189641,-0.6333072322091493,-1.0497758635118508,-0.8015238372441258,-0.9562520579120207,-0.6139849237871502,-0.8913837507739151,-0.43054600702316725,-0.6388971868922243,-0.5088369305352511,undefined,1486739451305
903d185fccf839df,-0.4810284229979494,-0.5739909120944192,-0.3391895844141811,-0.2926700087008911,-1.123117026696527,-1.8395270637854617,1.9204650419505094,-0.8224140579178397,-0.2567015013924587,-0.5679528670037446,0.06122112465527233,-0.11994503656321845,0.26620293003565065,-0.7326734260685565,-0.9939167408603924,-0.6029980668348681,-1.019147648360497,-0.7674918637808243,-0.9323621473269313,-0.5317849421092338,-0.8562023325222495,-0.42635688368743585,-0.6262418411965015,-0.5149634681283906,undefined,1486739452818
903d185fccf839df,-0.8372340994299707,-0.6849368636513308,-0.19691304637508614,-0.28071868886231016,-1.4787964318631805,-1.913412859784724,1.9125598380734847,-1.0325663271566818,-0.25044141405706183,-0.6624563140109427,0.06378285196964649,-0.1084119373699019,0.4446301247771836,-0.7373025962503686,-1.0065483167944218,-0.5625859028652695,-0.9633773591557249,-0.7644330530144638,-0.9863915206230136,-0.5818452891840107,-0.876014863132318,-0.4291099091326468,-0.6276804344533509,-0.49945097480867623,undefined,1486739454284
903d185fccf839df,-0.46162415055940453,-0.7313111361868974,0.19546423805666616,0.13538572112063574,-1.223114577015485,-1.9473056192401332,1.9042654264264058,-1.0946036851564898,-0.24406041720884722,-0.26090343319323284,0.12442585165161806,-0.19954327343394734,-0.6955631684491979,-0.7447092607708033,-1.0612852403238828,-0.6757399845919226,-0.9810814726418512,-0.7910187520836651,-1.0231667593371105,-0.680518529273141,-0.9147707438919443,-0.45802074152315186,-0.6524466658450029,-0.5122937656558144,undefined,1486739455779
903d185fccf839df,-0.42281576095665857,-0.7947087998259957,0.2949939246549476,0.2242425316312945,-1.2884596122553849,-1.9888662348132233,1.9476204134665531,-0.8604899300613437,-0.2563745030688305,-0.2251843795746431,0.15662460227191907,-0.013746265746295557,-0.4823209113190731,-0.842847653084292,-1.0833905276573694,-0.8030382558726035,-1.070678779622959,-0.8654941711804011,-1.072886097359491,-0.8439884263867027,-0.991238937907698,-0.46476851656130425,-0.670048343775337,-0.5335596772244305,undefined,1486739457275
903d185fccf839df,-0.8843586378328306,-0.8469531931147839,-0.041237900088490695,-0.06870300634330012,-1.4387233574616354,-1.9982949951381197,1.9414535206779775,-0.9326824333571475,-0.2562241760951328,-0.49008978659941443,0.1662637566787387,-0.15510134556705715,-0.1994485294117647,-0.8558093257081336,-1.0981274006041613,-0.8818419883324453,-1.1397799384679501,-0.8825487878115343,-1.0902381886150352,-0.9264778983866757,-1.0256692581353077,-0.4704361400960517,-0.6572967721092778,-0.5347308722075057,undefined,1486739458792
903d185fccf839df,-0.6778424493662252,-0.8357999081504776,0.14633702436362875,0.146981713622834,-1.2645865041117144,-1.9948640265208795,1.9186872906189978,-1.0555398957443611,-0.26518004405902124,-0.5292092987271484,0.13955698181781487,-0.15389409047235425,-0.5432472704991087,-0.8706226676997777,-1.12865374346849,-0.8394092147511308,-1.115537540595544,-0.8848413127694237,-1.1294693064236974,-0.8832082654844651,-1.0390643746959964,-0.4756827770283183,-0.634044173965128,-0.5199393664083192,undefined,1486739460276
903d185fccf839df,-0.4851864283871869,-0.7272020019720553,0.45960096816597784,0.45370996927615537,-0.9932806741062317,-1.9650427768431806,1.9319415220737306,-0.8906494351744058,-0.24882372650395637,-0.47332816881138806,0.10198138020318656,-0.022029894210234456,-0.7782489416221035,-0.8493284796831319,-1.1528643057280379,-0.8879038030352325,-1.08246804758134,-0.8754305580440327,-1.140335353684592,-0.87658693230016,-1.0381605795216224,-0.469577303900065,-0.634230067525827,-0.5154933756791455,undefined,1486739461770
903d185fccf839df,-0.5226087874390122,-0.6285833946036853,0.38878164101795676,0.39341497573905276,-1.0342588911955135,-1.9151854122959606,1.8806997539223484,-1.1854288681341734,-0.32405328879479944,-0.37726943091525533,0.07310377909024073,-0.016332536475558757,-0.9566761363636364,-0.8576609821251614,-1.1391800776065102,-0.8474916319994537,-1.0934303166477461,-0.9081402127855521,-1.132743813883397,-0.8678098169956966,-1.0483001198712696,-0.47064028913956535,-0.6581274587597515,-0.5102663603493462,undefined,1486739463275
903d185fccf839df,-0.7014046754358929,-0.6731966075308915,0.3281704868543747,0.34866558733615916,-1.2378231215699194,-1.9576916987278397,1.9137011811568814,-1.0367694634580027,-0.30356172289009103,-0.5574679066803476,0.0870269348543586,0.0047338341440618424,-0.9131573083778967,-0.8780293645971489,-1.1307590073512006,-0.7868733789788754,-1.1245486967738318,-0.916379372460009,-1.1254881206556104,-0.8509331214327573,-1.0440566051189544,-0.47145644876741905,-0.6857190948568709,-0.5204157676920393,undefined,1486739464777
903d185fccf839df,-0.6043836410445611,-0.8134933236078686,0.5827369277223,0.520796909188735,-1.139183285006494,-1.9915891160981196,1.9790492308000873,-0.6270809087055493,-0.21497207271246985,-0.608510442454819,0.15722096016663933,-0.01910857252134876,-0.9349167223707665,-0.8132209658633103,-1.1265484759046624,-0.8070794609636748,-1.0953876862463492,-0.8983241491111413,-1.1324989244995152,-0.8097422807659156,-1.0328024891464815,-0.45750442381166706,-0.6566438014085424,-0.5172396578249603,undefined,1486739466274
903d185fccf839df,-0.5267668618390692,-0.7929477402176354,0.7345840091397309,0.7418337927249387,-0.9195116517695078,-1.9582227639638894,1.9172251219882541,-0.9697804973030159,-0.2397837647304906,-0.5171238259118656,0.14702185417714245,-0.14800590923838727,-0.6389886920677362,-0.815998476390401,-1.0749694647642933,-0.7161521344291604,-1.0700425058047487,-0.8713838065469526,-1.0955277765000297,-0.7649482037030951,-1.0031919694702955,-0.4520898601673957,-0.6436083179905666,-0.5220086177784232,undefined,1486739467773
903d185fccf839df,-0.4685542688085979,-0.6919810436287874,0.5572164952612022,0.5893622995272857,-0.979898979828551,-1.9682431510057254,1.852913210719637,-1.404878098378,-0.2652641407711397,-0.5270612122221882,0.11077268548081995,-0.1257112605000046,-0.016669451871657744,-0.8243309723570432,-1.0770747396903546,-0.6272453892416405,-1.0183688022004762,-0.8833974000274919,-1.1112146272440557,-0.7431901992508945,-1.017413859913292,-0.45021318947047784,-0.6092521116982361,-0.5021739156592654,undefined,1486739469268
903d185fccf839df,-0.5946816169678703,-0.7107655820246565,0.250332913711077,0.298302633004677,-1.081747953171797,-1.9834274617555212,1.9308764343868448,-0.9286136621107247,-0.24314224403770238,-0.5021122942325685,0.12639730670417837,-0.05978785381336716,-0.4126907865418895,-0.7660034617382238,-1.1402327003450732,-0.3888137023754656,-0.9663176201004408,-0.9057336930974199,-1.1416367612784033,-0.5904068253367891,-1.0008786171987292,-0.45362770719125084,-0.6004531345704955,-0.5190766523628608,undefined,1486739470778
903d185fccf839df,-0.7069487631341657,-0.7829684852495719,-0.3162211951991931,-0.3763112081970159,-1.1445832806669183,-1.9395608985295254,1.9277022642250286,-0.9207870517526524,-0.2797985408306517,-0.5627664669216139,0.09162491981791278,-0.01141851804111192,-0.8391753008021391,-0.8122951247040218,-1.1002326534435212,0.5285423193946593,-0.7973478794670996,-0.9259231174468222,-1.1250613165929402,-0.10858946734940826,-0.8943351158436517,-0.45805829340434306,-0.6505103394120023,-0.46716239152840544,undefined,1486739472270
903d185fccf839df,-0.6237878617249913,-0.7753372902739938,-0.31813535470225013,-0.4036299196205937,-1.083249666295767,-1.8944202430781787,1.9244755011365045,-0.8768196367833228,-0.2792953655723163,-0.6620578496950121,0.08033350808391984,0.087147674458106,-0.5693585672905526,-0.8854360194045027,-1.0865484253219935,0.3446670001844715,-0.8450622674325114,-0.9513182223959805,-1.1122991337129244,0.05132338792369953,-0.8684412910338968,-0.46501104846916225,-0.6510554530074575,-0.48984435356734884,undefined,1486739473766
903d185fccf839df,-0.53646888591576,-0.7336591815653868,0.1973783975597232,0.18785980598581373,-0.8461849146955135,-1.9481231837028536,1.913127881906763,-0.9588454541529385,-0.29320781055601947,-0.4265014939399091,0.1048143824350229,0.0010211914201899261,-0.678155637254902,-0.9354310470074545,-1.0812852600935419,-0.22110321059574314,-0.9306536729258753,-0.9840975383386413,-1.0861590487119699,-0.10541738781633254,-0.9089752153879671,-0.471236821317457,-0.6598683953502351,-0.4993042435760639,undefined,1486739475265
903d185fccf839df,-0.0818561790468959,-0.8440181181241769,0.6867333253436472,0.5862864785677564,-0.4789443873279524,-1.9986513700753328,1.9479175786391405,-0.6958784472521068,-0.22214666688497894,-0.3195902289769162,0.1227959670369153,0.02031459969561556,-0.7086188168449198,-0.9113593678898797,-1.0802326299927452,-0.7424200523152881,-1.140488627484887,-0.9472144742009472,-1.0843538714323824,-0.671063880241996,-1.0136895431119397,-0.4851954493904479,-0.6498640362232173,-0.5197383038189626,undefined,1486739476770
903d185fccf839df,0.002690701155084458,-0.7876646344625353,0.629949727775331,0.7194147644784284,-0.7803564585886011,-1.9643486634955531,1.9056303033279733,-0.998189387642873,-0.24788737038805855,-0.47172555357293056,0.1113337545952997,0.019463125267579862,-0.5998217468805704,-0.8771035007740049,-1.0749694610831766,-0.7161521485615212,-1.111432227882577,-0.9280003229619334,-1.074292456945175,-0.7237419649408273,-1.0086893162551396,-0.47326014324264154,-0.6649904620684021,-0.5289698375857818,undefined,1486739478266
903d185fccf839df,-0.7471431832878322,-0.7553787511098743,0.42514863848044526,0.4207488110261118,-1.336925813153725,-1.9434111315143203,1.8899014262901883,-1.2024003684835802,-0.27417557646730667,-0.7186779674902539,0.08262103421279285,-0.01420441540771972,-0.5954698640819964,-0.8252568167540253,-1.1149695190280793,-0.7464612291416377,-1.118862661920911,-0.8747529320185852,-1.093477712185512,-0.7286386703235002,-0.9870421903703208,-0.48121799537289756,-0.6743819545773776,-0.5419356817942461,undefined,1486739479759
903d185fccf839df,-0.7402130995440486,-0.8076231443986625,0.4423745491862621,0.410150393678606,-1.4158685384821166,-1.9685785616379319,1.9427079259311573,-0.8968897494206383,-0.2658019368455049,-0.6787059727893384,0.07447999152895791,-0.11109024394223722,-0.32565313057041,-0.8817326709558171,-1.1181274056493529,-0.7545436675885018,-1.1159257150609312,-0.9170063320791177,-1.1155176665449182,-0.7841808624020647,-1.0293553163653453,-0.4650907622105402,-0.6585183589324017,-0.5219616165665901,undefined,1486739481275
903d185fccf839df,-0.6237878962304011,-0.8275816543347896,0.3434832546049323,0.3346322506210011,-1.2623956528410931,-2.0151423833336697,1.9227240415544988,-1.044152884451555,-0.25033260422469267,-0.6223438804959386,0.10743741925865276,-0.12862139694107905,0.07472008689839574,-0.9289502106955336,-1.1528642910035702,-0.8495122345449893,-1.1439393353120064,-0.9770933015794793,-1.1451631543211553,-0.8293445030441086,-1.082095432836214,-0.470154894622933,-0.6444162136279676,-0.5128070726676395,undefined,1486739482763
903d185fccf839df,-0.5919094868552096,-0.8440181035101808,0.07168988648339238,0.05790331404783941,-1.1871866307104082,-2.0148093020562032,1.9418848063509713,-0.9006261467274397,-0.20840284304411422,-0.6500651139134801,0.10759801601060284,-0.0508714553909536,-0.8261196524064172,-0.941911876843988,-1.1707590616149863,-0.8656770902401761,-1.1301768237906566,-0.9874729968536115,-1.146093729623335,-0.8146543865191451,-1.08517339816601,-0.4736442584590734,-0.6344130184700205,-0.5255810639433859,undefined,1486739484290
903d185fccf839df,-0.5226088219444219,-0.8293427285571461,0.009802964833704917,-0.01828654557498147,-1.1794620743450681,-2.0098992657106614,1.9633703174093076,-0.7409949332014175,-0.1969789681254434,-0.7142408781554117,0.12439925014655785,0.1800677221456548,-0.5475991532976827,-0.9141368622285023,-1.1770748569442349,-0.07561940334635556,-0.9523774845898316,-0.9805320909098532,-1.1484866391266706,-0.23347085916490248,-0.9483921268281272,-0.481507101261152,-0.6263512734476557,-0.5196935056484425,undefined,1486739485782
903d185fccf839df,-0.6584382286857949,-0.7770983060403657,-0.06165475433126778,-0.1085833436472313,-1.1960323317158956,-2.0021568745378158,1.9702788210597624,-0.6885781737366288,-0.23759190705019792,-0.7356578842240961,0.11633423029314052,0.06052888338426287,-0.19509664661319073,-0.9243210405137214,-1.1633906251415904,0.009246073154469642,-0.9149102442455185,-0.9728312316749779,-1.1376135944554273,-0.15209007487357976,-0.9212121904856507,-0.4829455386324594,-0.6472347082215739,-0.5388922392556589,undefined,1486739487288
903d185fccf839df,-0.6431920479000118,-0.7847295156299399,0.021286905304249506,0.02023586103548993,-1.2805087609546977,-1.9933034359613198,1.9199627479176706,-1.0438437180655478,-0.26635086225514504,-0.6471726426879054,0.09551855843029036,0.11669609194045247,-0.7173225824420678,-0.9243210405137214,-1.1602327201147324,0.02339033337030128,-0.9044770623174808,-0.9521351717040407,-1.1397406249374689,-0.15147413589796963,-0.9095113694043325,-0.48696586209075954,-0.6571637319508201,-0.5404303764385998,undefined,1486739488784
903d185fccf839df,-0.6376479947071488,-0.7677060952984157,0.26245575447247205,0.2641072002176552,-1.3002778708586855,-1.9776788998025645,1.9265398963317057,-0.9926262039692422,-0.2515006174401113,-0.6344891194937643,0.06918318550449071,0.0035182495961007493,-0.8000083556149733,-0.9206177082535041,-1.1802327435655084,0.04763762044617177,-0.8782906371473241,-0.9575815026797113,-1.1528036709298641,-0.1410647873955462,-0.9134613333414451,-0.4851779669500202,-0.6515538502326947,-0.5219062011268892,undefined,1486739490377
903d185fccf839df,-0.8219879704023023,-0.8633896130621828,0.4442887086893192,0.383734289464643,-1.4185839601396575,-1.9991195466756493,1.932188724646835,-0.9948963741409099,-0.23184937574583095,-0.643431607035693,0.09582956703953237,-0.04534519212630183,-0.9044535427807487,-0.9187660388857017,-1.1686537866889253,-0.39487547468117057,-0.9459036536016112,-0.9605389872054166,-1.160926968528964,-0.3653893424340733,-0.9668994767309955,-0.4796926456514173,-0.6669715943162452,-0.5150640410926843,undefined,1486739491796
903d185fccf839df,-0.7651613216592272,-0.8704338076536355,0.5036240953667958,0.4685542036112126,-1.3611383433821236,-2.0272334638911365,1.9255458327174915,-1.051265100447635,-0.2619976537661217,-0.587893881586082,0.12696642487907178,0.07451665307148955,-0.847879066399287,-0.90580436626186,-1.1381274475057135,-0.8171825231546155,-1.0887435200477353,-0.9330413455533242,-1.1350737517034675,-0.8393226962991063,-1.056790212031805,-0.47705363895802677,-0.6137036131882434,-0.5259931517026916,undefined,1486739493298
903d185fccf839df,-0.7845655768450673,-0.8862832272169092,0.3766593085304606,0.3374572061519405,-1.3545246404564584,-2.0481407148859305,1.9272972828718011,-1.0523915683937537,-0.2682065959183026,-0.5852181876473291,0.12554886980542568,0.08785047748512971,-0.517135973707665,-0.8419218216380844,-1.167601163950362,-0.8091000776415711,-1.0798843134779756,-0.9052143908300072,-1.1482557436153416,-0.8204596000350636,-1.0450994767805692,-0.469247441469899,-0.620676230105789,-0.5206833866106232,undefined,1486739494789
903d185fccf839df,-0.8233739837005181,-0.8633896130621828,0.2694734921938498,0.3020884517759451,-1.2823601904826798,-2.040137448821019,1.9218877734807551,-1.0743681174458366,-0.24360196473509407,-0.5580800599380308,0.1218129223619836,-0.07188880369490941,-0.43880208333333337,-0.8511801555263215,-1.1760222268434382,-0.8070794750960355,-1.0872141955308856,-0.9127315945875049,-1.1396776534071305,-0.8257104700534081,-1.0476242093518724,-0.46838967442791873,-0.624535313865953,-0.5221792934314946,undefined,1486739496297
903d185fccf839df,-0.748529196586048,-0.8751299422526029,0.24076313274358946,0.24801248064318285,-1.3661886198618123,-2.0378617818392453,1.9240415819937204,-1.0687055173222952,-0.26764150968091444,-0.6706722404605947,0.09481250060263294,-0.07643017649399911,-0.07324392825311943,-0.9048785348156525,-1.1749695820181736,-0.8111206872532871,-1.1063251168292452,-0.9118703149283897,-1.144687369927544,-0.8045838022279874,-1.0456644644271056,-0.46746099347349984,-0.6324391687098583,-0.5212988431874599,undefined,1486739497791
903d185fccf839df,-0.7776354758485788,-0.9385276058917011,0.4844835168840229,0.4609280222264757,-1.392602291360991,-2.05255229303585,1.9501871026945936,-0.9093957563777253,-0.25963488369150456,-0.6926683060197554,0.10366563333965204,-0.09304858673397909,-0.38657948975044565,-0.910433529968285,-1.1876011800389044,-0.815161885278178,-1.1160484872993905,-0.9228263076508408,-1.1549307012773304,-0.8424485800381245,-1.0578212132130838,-0.46863973229449857,-0.6392228477659706,-0.5276964899322167,undefined,1486739499294
903d185fccf839df,-0.8718844836434791,-0.9132859609724815,0.4755511113856893,0.4705868558974711,-1.3954617147895947,-2.0581774062511964,1.9154421016221188,-1.1459700903484467,-0.2761412276766766,-0.7214887358146271,0.09682806121575879,-0.009299381112216164,-0.7042669340463459,-0.9030268589724629,-1.2044433058250563,-0.8111206801871067,-1.1383591805409927,-0.9251694976807324,-1.1793985491883383,-0.8579702131556799,-1.0714367142567707,-0.467319736019341,-0.647486217014966,-0.5218213595441693,undefined,1486739500787
903d185fccf839df,-0.9190090047936342,-0.8316907739356355,0.5623205817534218,0.5243096481208784,-1.418882246576091,-2.045103386347849,1.9529641772472468,-0.886232535128692,-0.2722879120081815,-0.6615312985961254,0.0766175383351059,0.07594154672566207,-0.7695451760249554,-0.9215435332243244,-1.2065485697077667,-0.8272855712131956,-1.1671503972897905,-0.9637941210473394,-1.1910972169068548,-0.87341485484028,-1.0969963640514833,-0.4725532220832742,-0.6490314517819784,-0.521338969005117,undefined,1486739502293
903d185fccf839df,-0.8704984703452634,-0.7976438894305988,0.4410985275632072,0.4637485246162053,-1.3965828532921432,-2.0131462247227994,1.9172671904634981,-1.09808049250392,-0.293581157125335,-0.7243894902387981,0.07762349963843189,-0.06820767434916047,-0.7695451760249554,-0.9159885315963047,-1.2223380727553554,-0.811120666054746,-1.1603331594679964,-0.9691771234610291,-1.1967786274610581,-0.8565689559393742,-1.0968004185160833,-0.4730115019601451,-0.646661464830403,-0.5222880830017896,undefined,1486739503784
903d185fccf839df,-0.7623893123155007,-0.7929477694456277,0.5884788979575724,0.6136105263673056,-1.4028365571435457,-2.0053060064885893,1.9537189345076398,-0.8504007289518669,-0.275159381864011,-0.5938784067197799,0.11094874518476501,0.0887810146829257,-0.7782489416221035,-0.9298760421417411,-1.2107591158787723,-0.8070794821622159,-1.166820880440567,-0.9802091109207226,-1.194588625644424,-0.8628669203557646,-1.1047660585135861,-0.46939513365361824,-0.6431887628838143,-0.5203436762516824,undefined,1486739505293
903d185fccf839df,-0.7984257270799296,-0.7770983352683579,0.5750807979839707,0.5887491222991613,-1.4089051199526474,-1.9868654193511879,1.9514546700591144,-0.8497581594217601,-0.2819910274276288,-0.5369782281388743,0.1039927819025874,-0.08511970243612481,-0.7260263480392157,-0.9215435332243244,-1.220232805191528,-0.855574077512498,-1.154211161026855,-0.9904368146164374,-1.1982339640744704,-0.8538434306780499,-1.1109590074655917,-0.4739192509321815,-0.6398383754875078,-0.519475734969913,undefined,1486739506792
903d185fccf839df,-0.7623893295682055,-0.7213318227628491,0.6280358224092234,0.6554323865531656,-1.342438948190715,-1.950084402709318,1.938986765029077,-0.8875599824462836,-0.26808206318435607,-0.36904354822407043,0.10674793387772115,-0.07155930722029734,-0.6476924576648841,-0.9308018735879486,-1.2160222755855485,-0.8818419530015434,-1.1688246895029137,-0.9926913422278524,-1.201417512992773,-0.8641295914688176,-1.1140041426282818,-0.4737923718593379,-0.6445409749469088,-0.5226960171673184,undefined,1486739508286
903d185fccf839df,-0.8289180196406762,-0.7436384511474465,0.8404935497163373,0.8881108484640529,-1.3749314628006293,-1.956117132352431,1.9478150231129499,-0.8360622576511885,-0.24347791620216902,-0.4555382609110993,0.07959901051025244,-0.06923671453724317,-0.5911179812834225,-0.9409860389223933,-1.1991801405966045,-0.8939656248042002,-1.1755447884328922,-0.9906331358039966,-1.186962101599217,-0.8717672204640249,-1.1108120759470987,-0.4721634660975876,-0.6398538384648753,-0.5207131870397728,undefined,1486739509907
903d185fccf839df,-0.7762494798030679,-0.8140803093779977,0.834751579481065,0.8486376452827776,-1.3933325754366144,-1.986383266574413,1.9632440952232266,-0.7642339635503329,-0.2588053264238348,-0.5573078458450283,0.09932375776250674,-0.041893420977282214,-0.8913978943850268,-0.9243210405137214,-1.1907590777035286,-0.9000274324408071,-1.1706965189728018,-0.9776062703163282,-1.1812527039238483,-0.8971284596294157,-1.1073966702252391,-0.4712447550725024,-0.6351661082821825,-0.5223124031904296,undefined,1486739511289
903d185fccf839df,-0.8289180196406762,-0.8798260768515701,0.7237376982752896,0.7011750459519316,-1.4394330659620926,-2.0187690080832645,1.943410099692539,-0.9348271079321198,-0.2730211990916075,-0.6842142228581529,0.08869847183035523,-0.08536380807890892,-0.6999150512477719,-0.9113593711275734,-1.1949696091500666,-0.8939656106718394,-1.1690456485558587,-0.96196389976537,-1.1771595698546111,-0.8924165352959273,-1.0978773885224455,-0.47569641106754545,-0.6363966534882437,-0.5238397722073966,undefined,1486739512807
903d185fccf839df,-0.7790215409049092,-0.9062417663810287,0.5476462060198158,0.5612124723693125,-1.4021885610128468,-2.0184988163213085,1.9575400457492087,-0.836057217421662,-0.2604686270930533,-0.601556517116699,0.11985241196453478,-0.005501174717507962,-0.6041736296791445,-0.9206177017781167,-1.1886538027774673,-0.8272855288161133,-1.166070906887286,-0.9494626691565914,-1.1663984746345257,-0.8655770449099746,-1.083327315207026,-0.47282530151610014,-0.6408310951193109,-0.515271372128199,undefined,1486739514285
903d185fccf839df,-0.7055627153305402,-0.8610415384557011,0.44492710070627073,0.4209600099501904,-1.382131451855851,-2.007970655261357,1.9233367904753762,-1.0456978733300306,-0.2726890569183315,-0.5522299118317586,0.10565649610889988,-0.052634737433981484,-0.8043602384135473,-0.8974718508690559,-1.1823380221726865,-0.8434504057098413,-1.1455454849747349,-0.9423064435596618,-1.1543639598777042,-0.9064445191378814,-1.0827159003337445,-0.47216983449237576,-0.6369119139044225,-0.5133747165729877,undefined,1486739515791
903d185fccf839df,-0.7069487803868706,-0.7612489010910881,0.465343446675149,0.538390775345284,-1.3202012703893364,-1.988346816219494,1.8932544335627504,-1.2215675977630223,-0.23094661432997785,-0.3979704558467743,0.10589142263694597,0.008133232825918843,-0.847879066399287,-0.8946943565304334,-1.1928643379051223,-0.7727291328954046,-1.132861309988786,-0.9343332673867754,-1.1622983436687728,-0.8817300142100538,-1.0768822947414118,-0.47459557601238556,-0.6395797312483321,-0.5139969493961545,undefined,1486739517288
903d185fccf839df,-0.7707054438629097,-0.8181894435928397,0.597411303455906,0.6615171967187974,-1.401273133218226,-1.9737750948625614,1.945056351423172,-0.8779386082320786,-0.2085601633493279,-0.4597020260883168,0.08583965693451755,0.09234380561125426,-0.9044535427807487,-0.9076560356296623,-1.1970748840761278,-0.8010176462608876,-1.1594520253118785,-0.9343585989732381,-1.166853267482202,-0.8714746497043746,-1.07582538810826,-0.47235868952993154,-0.6386959921529852,-0.5164421803288493,undefined,1486739518794
903d185fccf839df,-0.7817935675013407,-0.8416700435176953,0.5916693332206338,0.6369568309837706,-1.3986811371924348,-1.972084067410567,1.9482989142829132,-0.8557245756271276,-0.218011022658418,-0.515596636793925,0.08671713866944844,0.007838512850014186,-0.9827874331550802,-0.9002493581584531,-1.1981275068146908,-0.8070794750960355,-1.1434237694208278,-0.9483670702159926,-1.1578973496762794,-0.8932634494993024,-1.0810289218842561,-0.4694805590160305,-0.6395004690005491,-0.5158313355664287,undefined,1486739520306
903d185fccf839df,-0.7651613906700467,-0.9138729759706029,0.7798826496897048,0.7907635369505155,-1.4417782093920368,-1.9702928818961707,1.9490536704957844,-0.8571456322882625,-0.21149878739388933,-0.5039362530747912,0.11711970447911137,0.001563383621926028,-0.8783422459893049,-0.9326535526688319,-1.193916971687036,-0.8656771185048977,-1.1538682185864377,-0.9730908819449642,-1.165034096538042,-0.893925583663166,-1.095712478152574,-0.46532475133403506,-0.6401670703198398,-0.5187245506034628,undefined,1486739521777
903d185fccf839df,-0.7776354585958739,-0.8804130333937068,0.8813264957910432,0.9230268431508465,-1.3622080546298003,-1.9464088633866272,1.9082653821113733,-1.0949057394846982,-0.23315312981989028,-0.38778893408172577,0.07288617601334882,-0.08165955905608202,-0.7434338792335116,-0.9178401944887197,-1.1928643563107069,-0.8798213645883686,-1.1648519168531661,-0.9603616645720565,-1.159912430976314,-0.8837318120507596,-1.085196760688093,-0.4673944523038361,-0.6378120532586808,-0.5258600602486063,undefined,1486739523284
903d185fccf839df,-0.8594103467068325,-0.9209171267200672,0.785624619924977,0.8483552938035935,-1.408442261803452,-1.9660862758823097,1.9644091164892534,-0.7446260813501895,-0.2498064549522582,-0.3082331588501692,0.10640334531602695,-0.019297806737921586,-0.6825075200534759,-0.8863618508507102,-1.1781274870450318,-0.8778007408442917,-1.1274426233899868,-0.9443899803131574,-1.1506206662238427,-0.8624665589298247,-1.071704716796861,-0.45903792093871953,-0.6330713012313487,-0.5220164473105121,undefined,1486739524789
903d185fccf839df,-0.6154717646829919,-0.8545844027043581,0.8615480335652177,0.8872679892333423,-1.3065521460521512,-1.9570162183743118,1.9601514526351103,-0.7450152178665146,-0.22024357085342722,-0.36423447770768835,0.15499004810465491,-0.0403032589936413,-0.6650999888591801,-0.8345151312161005,-1.1676011529070114,-0.7767703521188366,-1.0512639805987312,-0.9082922017340531,-1.1457368923664975,-0.7365380734432491,-1.027943319118332,-0.457412384925359,-0.6354427741731257,-0.5239203261727977,undefined,1486739526285
903d185fccf839df,-0.7513012231824795,-0.8440181327381732,0.8526161363407829,0.8073238904438372,-1.2769601966347277,-1.955718832101424,2.0058758920722415,-0.4363179948688363,-0.22315472423336172,-0.49902675094946114,0.1548594304133024,0.035556903740825214,-0.8261196524064172,-0.8539576563403314,-1.1686537830078083,-0.7505024483650697,-1.0895604964935486,-0.9007116682518749,-1.1406012332013675,-0.6942847383578248,-1.0156160435313912,-0.4624178459184862,-0.6484590331273369,-0.5304856414278567,undefined,1486739527796
903d185fccf839df,-0.7596172684663642,-0.8064491144024196,0.6503663278811587,0.7516151258209621,-1.3559852066471947,-1.9733721356302596,1.9341452942337007,-0.940166637931686,-0.2239260890688905,-0.46131605340492454,0.13241683752248004,0.025857756582375345,-0.9566761363636364,-0.8530318313695111,-1.1802327546088591,-0.7545436817208625,-1.1032097439431345,-0.9037071500410045,-1.1483397060248555,-0.7124395052562883,-1.0234149779348303,-0.46359946253676376,-0.6448323122125557,-0.5295086767724233,undefined,1486739529300
903d185fccf839df,-0.7831795807995564,-0.8457791777325373,0.42323422484043877,0.435700340958673,-1.4713804413136673,-2.0244872911119596,1.914858304108582,-1.1288290711960047,-0.26576339251454617,-0.47338074095762706,0.08467664786096256,0.004181973586941964,-0.9740836675579323,-0.8826585283035737,-1.1781274944072655,-0.7565642842663981,-1.1213471223990137,-0.9154800932120695,-1.1588838997713256,-0.7120237480504393,-1.033722054871767,-0.4637004621840514,-0.6397339611409268,-0.5228478941939425,undefined,1486739530791
903d185fccf839df,-0.8261460102969496,-0.8592805226893292,0.12655907041170208,0.1285133229030979,-1.487323273671801,-2.047013362767436,1.9341558218277297,-1.0191162301890342,-0.28140966642223153,-0.4452015096931016,0.10036029624561843,0.03563395180114117,-0.9479723707664884,-0.8956201879766409,-1.1781274907261485,-0.7020078600809679,-1.120028597450861,-0.9098691055789802,-1.161353774261592,-0.7238343562462335,-1.0310573816581199,-0.46598758341684027,-0.6577631420555713,-0.5246117356069757,undefined,1486739532285
903d185fccf839df,-0.9162369781972027,-0.9179820736504546,-0.20137874085035412,-0.23228663277656572,-1.587433964239552,-2.0796040775231663,1.9697029061477245,-0.8154922752002219,-0.28778312270576967,-0.5234505606957919,0.11085971997446976,-0.06663205257590861,-0.9436204879679144,-0.9011751831292732,-1.1970748877572448,-0.724234565809844,-1.1548845431706871,-0.9273036998716502,-1.1824491589874861,-0.7865060284318057,-1.0588344047250866,-0.4704602294640513,-0.6497495714033986,-0.5254179314307816,undefined,1486739533782
903d185fccf839df,-0.9869237081643206,-0.9080027967613967,-0.2843204004858714,-0.2947736562914561,-1.6416190162282018,-2.093789144972415,1.9681697197294399,-0.8378184474497826,-0.2947316627832428,-0.599477245601716,0.10414440972183626,-0.1032513360112481,-0.3909313725490196,-0.9372827196129504,-1.2086538335904773,-0.8050588654843195,-1.1338498298477053,-0.938259692372635,-1.1904045328992146,-0.8123292224549015,-1.0713195130245197,-0.4705514034474942,-0.6484654334862046,-0.5193738746063409,undefined,1486739535283
903d185fccf839df,-0.9772216323295153,-0.9925330441748536,-0.34812148163861595,-0.3805643007044515,-1.7045469095732566,-2.113373388521841,1.904665164933054,-1.2793059539005356,-0.2882606288624718,-0.6440487129220951,0.11398107466689102,-0.24506705110724425,0.03555314171122996,-0.9465410599765748,-1.2012854007981981,-0.5625859452623518,-1.0728782040919382,-0.9342952697136376,-1.1914330638962232,-0.6238368530796766,-1.0272262054230532,-0.47070602247578275,-0.6474165898619616,-0.5222556124576015,undefined,1486739536795
903d185fccf839df,-0.905148837306067,-0.903893691774547,-0.2875103274750339,-0.30934697002665784,-1.6093836399991959,-2.094713853089138,1.9228792004826145,-1.1336249432179952,-0.29077441997011894,-0.6565267164490958,0.13299762590808756,-0.1740934739556405,-0.05583639705882352,-0.941911876843988,-1.20654856602665,0.04965825832260931,-0.9455466816198219,-0.9261131059952206,-1.1878856807389284,-0.1119617268617579,-0.9006171966505776,-0.4738305608365183,-0.6585345473975585,-0.4870872320518224,undefined,1486739538292
903d185fccf839df,-0.8940607309203409,-0.9003716163998149,-0.1573556136495363,-0.18529124231184474,-1.5444706081199757,-2.0804169824654903,1.9485487398505903,-0.9500779046882293,-0.2758597870179129,-0.6518111189723602,0.14166793248077994,-0.22953765518445424,-0.16028158422459893,-0.9382085445837707,-1.2033906757242594,0.12846197665009035,-0.9298143765031169,-0.956302248422298,-1.1825121301202155,-0.03846494537347674,-0.9005108427918909,-0.47938168687013644,-0.6245251446567998,-0.49678545851098227,undefined,1486739539791
903d185fccf839df,-0.8691124225416379,-0.9197431186448187,0.0818980594678315,0.08196560014183335,-1.5274374916357019,-2.0773563617689916,1.9440912182658623,-0.9772079960083597,-0.27434355229718566,-0.6080434428398611,0.16133257232881734,-0.22896789188002184,0.10083138368983958,-0.940060213951573,-1.18444328237428,0.05369947754604132,-0.9505605508521161,-0.9657889980676412,-1.1755712936816154,-0.07137142304986968,-0.9085536814939232,-0.4751788013589358,-0.6249866546766928,-0.4983115559876174,undefined,1486739541293
903d185fccf839df,-0.9522733066981074,-0.9391146208898226,0.2586274354663579,0.2462473253775178,-1.6142076316581722,-2.0786094927101155,1.9565407309082412,-0.9086959624467373,-0.2860645310901454,-0.6491813166433232,0.17572028453286517,-0.2578757217499145,0.7187987410873441,-0.9169143695178994,-1.1886538064585843,0.15068866118042523,-0.9069836785321587,-0.9774479473998665,-1.1685325018785073,-0.035292865073049386,-0.9042747425601815,-0.478898610897376,-0.5934546811084342,-0.509960212692213,undefined,1486739542786
903d185fccf839df,-0.9051488028006572,-0.9520289654624893,0.5355238735323197,0.5224076895538702,-1.5623162865321691,-2.0749828671160793,1.9651401997571036,-0.8402176612360002,-0.301809241425359,-0.6559930858871221,0.19538491200317853,-0.3412757723605885,0.26620293003565065,-0.9298760356663539,-1.1865485573003414,-0.20695893624755074,-0.9815401131763887,-0.9934892938177503,-1.157974314406294,-0.24716007361260162,-0.9556809934467798,-0.47937007269666976,-0.6114221366324021,-0.5050041737898749,undefined,1486739544301
903d185fccf839df,-1.0382062347037133,-0.8504752831035123,0.6069815926972923,0.5934225868304469,-1.604827072654228,-2.0491143363408,1.9488958980007924,-0.9374177730075525,-0.2929400924039325,-0.6348981913866488,0.2659264170861526,-0.31564068458666683,-0.08194769385026737,-0.953021893050802,-1.1981275068146908,-0.5363180556409457,-1.061109070816408,-1.0007405141954842,-1.15652597437131,-0.6923599317750643,-1.0671004069513972,-0.47556140234084976,-0.6088805986943652,-0.5144809964348308,undefined,1486739545793
903d185fccf839df,-0.6861585464082245,-0.7900126652270285,0.5827374359961989,0.5798825952601827,-1.3899177177862192,-2.0157642898202184,1.9106874473379791,-1.1308346376114637,-0.25640737436927347,-0.5404683239232461,0.2836200122890161,-0.2561877229022073,0.4054631795900179,-0.9539477309723968,-1.20549593960697,-0.01298054778024178,-0.8840025731864285,-0.9975487106485186,-1.1626691741191697,-0.1553853459550696,-0.9424111845405386,-0.477132399614387,-0.573973607722623,-0.5382086243635873,undefined,1486739547308
903d185fccf839df,-0.576663375080246,-0.7765113202702366,0.3811255112796274,0.3825043072154217,-1.3037132916690128,-1.9894345693173825,1.9067085300807205,-1.1261654019875116,-0.292909158180872,-0.5455815444643085,0.22993767373149707,-0.23665273707554588,-0.1298184046345811,-0.9604285672843177,-1.1907590813846456,0.1971626327866306,-0.8321627033265359,-0.9907534624038038,-1.1549726818734398,-0.022050206431805174,-0.9076770453907937,-0.47782605640549985,-0.5897741885675254,-0.5518717912493862,undefined,1486739548794
903d185fccf839df,-0.7873376206942037,-0.8093841893930266,0.4889497196331897,0.4931588711938356,-1.3242229741363891,-2.0089862029822814,1.9254485200378795,-1.0151901121064462,-0.2715146133468534,-0.5544719592763144,0.1577714272493482,-0.28831506634101917,-0.5519510360962567,-0.940060213951573,-1.1939169680059192,0.13856501764248996,-0.8610942513283876,-0.9757063879107304,-1.1627111547030446,-0.013196100865607364,-0.9018020276155905,-0.47694533851097154,-0.6090507753657729,-0.5481837693015154,undefined,1486739550294
903d185fccf839df,-0.8289180368933811,-0.8457791631185412,1.0765580582553909,1.110044196737065,-1.3244286939746945,-2.0398299887549936,1.8963286827156876,-1.2306864051642148,-0.282122656911611,-0.600708230750991,0.10942214362944268,-0.31727839604412295,0.9320409982174689,-0.9382085445837707,-1.1886538027774673,0.05167885380196455,-0.8976102451599786,-0.9602540055316773,-1.1626411868144921,-0.017615454318284714,-0.8947865723649996,-0.4791480922253098,-0.6382796816872617,-0.5462535111097934,undefined,1486739551792
903d185fccf839df,-0.5087486889622644,-0.7735762598936258,1.3126220585205455,1.3922585390683808,-1.1423821410485682,-2.001504686625393,1.90507278499368,-1.1079890670990857,-0.2680606078688913,-0.5985440817586106,0.1577705414900747,-0.37384273160057974,1.2018577317290553,-0.9030268524970756,-1.1833906522734834,0.38912041164222355,-0.751483684210604,-0.921224073426444,-1.1646982492305864,0.1728017209127358,-0.829560037138654,-0.4811421626826519,-0.6757845466366061,-0.5576776073964285,undefined,1486739553281
903d185fccf839df,-0.6113137765464594,-0.8164283693704832,0.9693719877818306,1.0373525870977933,-1.2357865532682275,-1.9461526473231863,1.9323175719225316,-0.8987610272062969,-0.27401150001016944,-0.5097478556096272,0.15661981627749644,-0.3262367075188554,0.09647950089126561,-0.8780293386955997,-1.169706420470839,-0.11603158144831485,-0.9403990136935313,-0.9311224637353444,-1.1538252049936548,-0.1590809712332387,-0.9142465157900129,-0.48396242122193084,-0.6743415910153547,-0.5272179135510726,undefined,1486739554793
903d185fccf839df,-0.7887236167397146,-0.7236799412113194,0.7435159063641656,0.75025153042037,-1.3685029012693566,-1.9068816755543443,1.8621753868987725,-1.3402249215717355,-0.285549006535074,-0.7067162891628394,0.059910843582079515,-0.0667483264304094,-0.49102467691622104,-0.8780293581217615,-1.171811699078017,-0.0008569678379299877,-0.9287095470877734,-0.9206287755525326,-1.1607520483182179,-0.013488668690474263,-0.8819485702963126,-0.48153861919702473,-0.6765713017726583,-0.5047974745587637,undefined,1486739556291
903d185fccf839df,-0.8261459757915398,-0.6655653979413173,0.6095336359434022,0.628292478624229,-1.3795805978280082,-1.8826599166066404,1.9422240588541955,-0.7840340708336555,-0.3273657876323023,-0.6497567337417435,0.019508381830015818,0.04470762340018739,-0.5650066844919787,-0.9058043727372473,-1.17286432181658,-0.041269117675167735,-0.9514363292687225,-0.9177346203362579,-1.1449672428458586,0.02551559343649725,-0.8680130269115858,-0.48249065002480485,-0.6903441897798623,-0.5134554792288125,undefined,1486739557806
903d185fccf839df,-0.6459641090018531,-0.6203651846299858,0.5942213764667434,0.6380970664031128,-1.2595567993001742,-1.884609488652307,1.9567511078526802,-0.667598207587146,-0.33576922758787936,-0.5543512688982281,0.02882918445550943,0.07608089873783246,-0.6259330436720143,-0.9085818606004826,-1.1707590616149863,-0.06147517139524546,-0.9688766494257188,-0.9161007203802641,-1.1369349040940087,0.04975274652856528,-0.8610837758905958,-0.47749344749916367,-0.6907883043858323,-0.524867594787172,undefined,1486739559288
903d185fccf839df,-0.7707054438629097,-0.5816221655259819,0.30137377863327264,0.35977210255185227,-1.299650445936015,-1.878621013604337,1.910135168707699,-0.9738331520071484,-0.290544589020123,-0.5726386522982796,0.06753568776333853,0.1205436901724412,-0.38657948975044565,-0.9326535559065255,-1.1739169592796106,-0.22918564904260716,-1.0328611565907984,-0.9346182482798447,-1.14053826183619,-0.3646040203700817,-0.9682629535926345,-0.47898420492231486,-0.6504492200760854,-0.4928253620321373,undefined,1486739560799
903d185fccf839df,-0.6889305557519512,-0.5628376855860975,0.3938857275101763,0.4499282320689194,-1.2606676513774946,-1.87344311411224,1.8573839007008368,-1.2950343932924089,-0.2812664391077344,-0.43324533347903893,0.08774362118172192,0.1772601595968181,-0.12111463903743315,-0.9391343760299782,-1.123390589283389,-0.5080294786798394,-1.093065098332394,-0.9165756918038584,-1.117777635754623,-0.5368972266435916,-0.985951327585179,-0.4793541823813287,-0.6546300064301414,-0.5199445756456551,undefined,1486739562276
903d185fccf839df,-0.6099276597320143,-0.5182244726588913,0.6006012304450685,0.6024187686287017,-1.146630128009915,-1.8939241137484808,1.9146268824513029,-0.9206847837302445,-0.24260393163876634,-0.46576934319200375,0.05968505477324239,0.02351826932594633,-0.17333723262032086,-0.9030268460216884,-1.1012852872254348,-0.6353278064899633,-1.087472925705163,-0.8824474583983698,-1.1007334043550472,-0.6777930033521635,-0.9914808661240189,-0.4788594565846707,-0.6474219989099167,-0.5111587679682557,undefined,1486739563781
903d185fccf839df,-0.6695263695769307,-0.5792740616915079,0.7703123604483183,0.7592591229681274,-1.0304326128494512,-1.9285179762774365,2.0001376556769572,-0.3697580244837065,-0.18710732684412545,-0.7613168444986697,0.05940210182330536,-0.08448113087456319,-0.2560230057932264,-0.8363668200100647,-1.0960221367214507,-0.6615956961113695,-1.04629543384752,-0.8585215975063096,-1.0965912926341415,-0.6691544747432945,-0.9770975509384957,-0.4715890874210409,-0.6438583140647341,-0.5087960086181823,undefined,1486739565281
903d185fccf839df,-0.540626960315817,-0.5622506267459876,0.46853286539041267,0.46173519644812633,-1.0429503077276796,-1.918199446532358,1.9242388198722982,-0.8559876815927991,-0.2855350583650032,-0.7268318762379129,0.035899547176176126,-0.11618436209250024,-0.1646334670231729,-0.74563511811856,-1.0581273463403753,-0.7302963663802705,-1.0556584966653146,-0.7920826852206905,-1.0663160918973544,-0.6883871333076409,-0.9324914349219625,-0.46271529160949787,-0.6730104615820567,-0.5308552074957664,undefined,1486739566779
903d185fccf839df,-0.3618311758351655,-0.4730242447335635,0.3747456573013024,0.3654498727502114,-1.0441743053871824,-1.796671391559244,1.8701515991356419,-1.061828339680694,-0.3350749325566699,-0.5349369812377028,0.0025895118848213395,-0.04497348336276682,-0.7390819964349377,-0.7308217631761414,-1.0097062402268644,-0.5585447260389198,-1.0256265089950547,-0.752052147554886,-1.0098728185429655,-0.5107814612146548,-0.8622694429056309,-0.41622124637614144,-0.629861096637585,-0.42715718151935206,undefined,1486739568270
903d185fccf839df,-0.5835934760767345,-0.5645987013524694,0.7964709307894183,0.7167225599980643,-1.1824140717277163,-1.7652825630566233,1.868355440751167,-1.07358120660519,-0.3283605811786238,-0.4952491000115351,0.04366797962848607,-0.046884345263022466,-0.6825075200534759,-0.7104533936549285,-1.0265483476074315,-0.5787507797589976,-1.0169156621546191,-0.733471291486428,-1.0213825725146213,-0.5482920750891604,-0.8658419219428649,-0.40292408174666117,-0.6289603930053554,-0.42750007285737635,undefined,1486739569794
903d185fccf839df,-0.7041767020323244,-0.5628376563581052,0.7001314253172488,0.7303996823619973,-1.2487053849695595,-1.8766038916987087,1.9121522284880765,-0.9386343447151492,-0.3264939250414763,-0.5232666117764555,0.060647585408723004,-0.03424075260246171,-0.499728442513369,-0.7002692412712586,-1.0665484018712175,-0.5585446977741984,-1.0169156621546191,-0.74024120759655,-1.034718493837588,-0.542440666358064,-0.8692796819611517,-0.4038974907392999,-0.6418302565792068,-0.4317814746201913,undefined,1486739571282
903d185fccf839df,-0.6334899548125016,-0.6814147736626025,0.5508366412828772,0.55833722781422,-1.2476665315011777,-1.8829580573251745,1.9005810775352074,-1.0351686844066939,-0.30948451001320426,-0.39184665042640754,0.0822131319694575,-0.13083712421714372,-0.5693585672905526,-0.7086017437132881,-1.057074701515111,-0.6393690257133954,-1.0135425277570025,-0.7442562944638298,-1.049236875709348,-0.610317012794848,-0.8887410205556897,-0.4179833155786876,-0.6068559962933038,-0.4091348085991619,undefined,1486739572801
903d185fccf839df,-0.4976605480711287,-0.604515750452716,0.7817965550558124,0.7467169415465286,-1.1411889966871929,-1.8953519400700378,1.9265793292421165,-0.8495866933307243,-0.28061607614450335,-0.39727647384322595,0.07948620463677476,-0.03136700340048936,-0.8348234180035651,-0.727118430915924,-1.0981273895608106,-0.6050187259098467,-0.9990595414887256,-0.7734131679628956,-1.0761186231158932,-0.5887437916534999,-0.9116311794492347,-0.4446790125005971,-0.6201895661419594,-0.41524693290054376,undefined,1486739574303
903d185fccf839df,-0.40756963192899015,-0.5863182562829606,0.9055711607660355,0.8897528869685278,-1.1174496124675914,-1.8753065078902844,1.9258298326361725,-0.8079023511787964,-0.32196760699125376,-0.537488928773691,0.05873265276314192,-0.024431481790007165,-0.865286597593583,-0.6780492477099543,-1.0697063068980754,-0.7282757920994564,-1.0268605804707625,-0.7633817844858234,-1.085837193466417,-0.6954088256023685,-0.9299718013210032,-0.46108691390734635,-0.6306410970700465,-0.5197804782735431,undefined,1486739575779
903d185fccf839df,-0.43251788854957857,-0.6227132446224714,1.4651072778179786,1.3828136923195695,-0.954380169551172,-1.9281103609999035,1.9576951900120199,-0.6287120903252953,-0.24709085228505928,-0.5096808280760138,0.18220956887182216,0.043489977691955346,-0.7826008244206774,-0.6928625702754365,-1.0686536731161618,-0.6676575178803371,-1.0479947486991545,-0.7897711603687292,-1.0801417894984406,-0.6820275750017669,-0.9339560175199753,-0.47284122563420156,-0.6375587132829127,-0.5261780238874793,undefined,1486739577286
903d185fccf839df,-0.4990465268639347,-0.7172227470039918,1.3330389127633226,1.3004139591754826,-0.9578670233938762,-1.9417317516206658,1.947423171397888,-0.7152072198073314,-0.25435771968719406,-0.49258353571361857,0.21733582351286249,-0.00989821456699871,-0.7695451760249554,-0.7021209106390609,-1.05391680016937,-0.72625517542156,-1.005048871133468,-0.7996062216228855,-1.071535712529971,-0.694977668631767,-0.9399405754497828,-0.46676008477082354,-0.634021727389133,-0.5168395330483049,undefined,1486739578796
903d185fccf839df,-0.5600312500070668,-0.781794455253329,1.1486531528895174,1.171622039835105,-0.9960063870282612,-1.958816721126456,1.9485171748763739,-0.7401886541476669,-0.2161649052587175,-0.6532059500562563,0.21016113723012256,0.0587797876012959,-0.6520443404634582,-0.7567451148992121,-1.0507589098669794,-0.7282757497023741,-1.0227202951843268,-0.8388578064966042,-1.070759066547128,-0.656034999384606,-0.9570587015941563,-0.4631485862485677,-0.6107696642668036,-0.5213920027533017,undefined,1486739580310
903d185fccf839df,-0.49073041256923045,-0.8035140686398051,1.1614136232570158,1.1515065564685634,-0.9959446710655666,-1.9605846141481018,1.9555308696178528,-0.6935853280275832,-0.24838697099109994,-0.5259249595699514,0.18560272370643438,0.0428822930433269,-0.5388953877005348,-0.7697067875230538,-1.0644431416696238,-0.7020078600809679,-1.0258307532773574,-0.838167515364472,-1.0804356564116497,-0.6371565055501672,-0.9578546760847481,-0.4534815387958514,-0.6173640479679249,-0.5205114195901749,undefined,1486739581799
903d185fccf839df,-0.5891375292695975,-0.8299297581692636,1.0535894149034535,1.023376949988831,-1.1648255276693822,-1.9799196285399177,1.9549365361301125,-0.7467041992721883,-0.21751169040588123,-0.5922590632197421,0.08428770160716165,0.08134268843658841,-0.5301916221033868,-0.8002593029525494,-1.0939168581142726,-0.7060491075691215,-1.044291810925346,-0.8600731682809474,-1.0924561774060253,-0.7195843839972144,-0.9856974092440428,-0.44999296548033924,-0.6390162136272166,-0.5261251396203104,undefined,1486739583285
903d185fccf839df,-0.5378550199829099,-0.788251591004672,0.7977466982755238,0.7982467137069078,-1.1350792915300518,-1.964153007554829,1.9168253950043452,-0.9788454563402285,-0.17169629030100658,-0.323829588974953,0.091305557559552,0.024303408959575272,-0.7347301136363636,-0.8224793159400154,-1.1244432267464197,-0.7100902914616516,-1.0502512352297793,-0.8628659961658439,-1.1148879531133546,-0.7310100309760775,-0.9993656090409838,-0.4491712764925745,-0.6271715714422968,-0.5189811406759608,undefined,1486739584827
903d185fccf839df,-0.6237878617249913,-0.8093841601650342,0.9062090445090882,0.8752198203777136,-1.1797706480409476,-1.9830827336296073,1.9639488888366148,-0.694566390585407,-0.1497940833802195,-0.3637708703829324,0.0784576517188986,0.015197797584714094,-0.7913045900178254,-0.8095176368407865,-1.1297063882937544,-0.7363582022815989,-1.044922570970691,-0.8712698131288996,-1.1200236123641234,-0.7681972768634825,-1.0151174970338093,-0.4460517353272255,-0.6196895156216559,-0.5185361325076983,undefined,1486739586331
903d185fccf839df,-0.5309248672283068,-0.8041010397959379,0.6050674331942354,0.6227957515296971,-1.1120496191237705,-1.9790624661062528,1.9593151761811927,-0.7028561888042123,-0.17937401566632608,-0.34089408196281956,0.07313807542753328,-0.023662423053841898,-0.8304715352049912,-0.8271084861218276,-1.1254958421227488,-0.7020078600809679,-1.0598811758635511,-0.8657411527005765,-1.1148739595894743,-0.7646248369276024,-1.010572327905564,-0.44961396331380654,-0.6117593489583023,-0.5200029617973576,undefined,1486739587789
903d185fccf839df,-0.5184507130389552,-0.717809747388117,0.9827703418923817,1.0289064510976387,-1.0776953940040641,-1.9758597628598784,1.962200059581833,-0.6718214019760823,-0.1406082255227694,-0.17247727895962206,0.07875426574692969,-0.07168856297398793,-0.5954698640819964,-0.8095176174146247,-1.1307590073512006,-0.7585849009442945,-1.0544272181026082,-0.8523786413530328,-1.1122991331012182,-0.8013963248956563,-1.007406603174498,-0.45544485716431693,-0.618871244492808,-0.5272581037665259,undefined,1486739589287
903d185fccf839df,-0.5586452194561461,-0.7970568744324775,0.7964709307894183,0.8601213744902302,-1.1054564907450037,-1.9712851374831417,1.9037473577628716,-1.0659422441196114,-0.15817021881426427,-0.2014998988139394,0.0873692620058778,-0.07084331851695451,-0.6041736296791445,-0.8011851149725951,-1.1254958421227488,-0.8394092076849504,-1.0721091777840013,-0.8664377765604563,-1.1127189415152536,-0.8218146629112414,-1.0155238455471964,-0.45956256455929345,-0.6219082338860085,-0.5344933774785355,undefined,1486739590798
903d185fccf839df,-0.4408339683388731,-0.7900126944550209,1.1722594258475583,1.2094759146956113,-1.0533697184455488,-1.9676701577585631,1.9406330146646673,-0.8253477824465041,-0.12079802874259507,0.029758421245707014,0.1453821908753357,-0.10142990561428439,-0.7782489416221035,-0.8104434618116068,-1.1181274203738205,-0.7424200028520254,-1.0653729986700742,-0.8608457874649558,-1.104007911716874,-0.7905404192540094,-1.0028780298606734,-0.46038329932591104,-0.6221150504101939,-0.5283812214303527,undefined,1486739592286
903d185fccf839df,-0.4339039018477943,-0.807036129400541,1.3400569046216497,1.3917127901314457,-1.060507988013158,-1.9862435114077062,1.9458768553414387,-0.8088374208696414,-0.12998726101344107,0.00747325727928347,0.15688252734929017,0.12427188915131242,-0.5432472704991087,-0.8215534715430334,-1.1139168815650486,-0.6878635927989559,-1.0567258972473625,-0.8201249597909621,-1.0896574523824776,-0.7554319636768632,-0.9713550036363916,-0.4594364457825238,-0.6228667089417091,-0.515048693794001,undefined,1486739593788
903d185fccf839df,-0.38123529299936654,-0.8598675230734545,1.1697078908753473,1.1319759666224762,-0.9693149969858132,-1.9983998109042826,1.975143967942725,-0.6078644243811541,-0.12676679822727843,-0.061438103519415796,0.17913037118763467,-0.049338332352966245,-0.025373217468805696,-0.8215534780184207,-1.11602215649111,-0.7181727228423352,-1.0521255224588095,-0.8252863094084831,-1.0831434216581541,-0.7801156713772404,-0.9747203279812616,-0.45826172730953707,-0.6175397710644305,-0.5100514548446107,undefined,1486739595291
903d185fccf839df,-0.40341154027622833,-0.8463661927306587,1.2430787529955794,1.1832119606653042,-0.8883562752979496,-1.9878157480360545,1.954736682589615,-0.7243716351898922,-0.13938332963998964,-0.162820249030636,0.1948673090059515,0.09188817673902504,-0.20815229500891266,-0.8058142916297946,-1.1044431738467084,-0.6353278135561438,-1.040465239853176,-0.8204542734712198,-1.0547783502356467,-0.7394329797197593,-0.9566567458991595,-0.4511622291261734,-0.6136220775689826,-0.4927177840915778,undefined,1486739596787
903d185fccf839df,-0.39648147378514953,-0.7817944844813214,1.098250425847324,1.0634611675514298,-0.846771202401481,-1.9713736482155295,1.9121180457568971,-0.9842031655830319,-0.20742970483101664,-0.13039745525134938,0.17728875831684038,-0.0839609530790791,-0.39528325534759357,-0.8159984504888519,-1.0960221256781,-0.6312865943327117,-1.0370759419849287,-0.8179717596714888,-1.0479844470089683,-0.6980727551029481,-0.9482811192576109,-0.4499483599641477,-0.6084427780947996,-0.4990854204167268,undefined,1486739598274
903d185fccf839df,-0.3867793806976393,-0.7747502460478801,1.2456310503786385,1.1074901673322075,-0.8499186267315223,-1.9602375553559368,1.9610902919478705,-0.6458282922041193,-0.21531146100617995,-0.048906302638325454,0.1446028879464059,0.03829678186872426,-0.8565828319964349,-0.8391443402502364,-1.077074724965887,-0.6232041629520281,-1.0281424776858599,-0.8208849133699857,-1.0259724796300353,-0.7009676623352823,-0.9411209556947148,-0.45148932717800444,-0.6236045396838371,-0.5097172233062569,undefined,1486739599819
903d185fccf839df,-0.27589814431333043,-0.8011659794193272,1.160775231240064,1.237648350738912,-0.8322477980951405,-1.9659674842559007,2.043703015471457,-0.08728653505619627,-0.24252347763846002,-0.2390493287888876,0.12039958851911399,-0.019065292490069358,-0.852230949197861,-0.8437735104320485,-1.0612852403238828,-0.6413896141265703,-1.015675599605144,-0.8381295193080407,-1.0291560289581811,-0.6775466269191789,-0.949177241423706,-0.447810266588181,-0.6163096571163694,-0.5116749515089769,undefined,1486739601272
903d185fccf839df,-0.33133871074737026,-0.8129063086097472,1.1084588529687125,1.085864423527306,-0.8262820975898125,-1.9552716176225273,2.0457595186374626,-0.07062157841291938,-0.19507413500054893,-0.31980203198755797,0.129887608823739,0.0941038992620898,-0.6476924576648841,-0.8011851279233697,-1.068653662072811,-0.6252247654975637,-0.966555596391413,-0.8507130787382919,-1.0396232577116031,-0.6766689153941176,-0.961256672089104,-0.43923538528474615,-0.6054111006856737,-0.5201413040039012,undefined,1486739602800
903d185fccf839df,-0.5198367953479904,-0.8035140394118128,0.8921728066554845,0.9956532769977916,-0.8883665653061109,-2.001225178576592,1.937140648235207,-0.8594471397542701,-0.1474218735450247,-0.24251594470113547,0.1663091899488296,-0.019611347904108817,-0.8000083556149733,-0.7595226092378347,-1.0781273734722683,-0.6434102308044666,-1.0017532507858047,-0.8431515439985592,-1.0617331797454648,-0.6440550076427118,-0.9567584166739838,-0.4527035377038266,-0.6300133477630028,-0.5244966032551921,undefined,1486739604292
903d185fccf839df,-0.5863653991569369,-0.8422570731298128,0.8219913632505161,0.8189552129441613,-0.9735321333437343,-2.023455436849135,1.8935621284244102,-1.1850265103270035,-0.2050139322117975,-0.35847517868379547,0.17219033348254292,0.018469352663425562,-0.8348234180035651,-0.7558192575514555,-1.0970747668222476,-0.6979666549898967,-0.9782611727203578,-0.8319358994226349,-1.079358146704721,-0.6546029424368603,-0.9600655931151313,-0.45246210049702906,-0.6247974949436301,-0.5205830808774888,undefined,1486739605801
903d185fccf839df,-0.5835934760767345,-0.8698468072695104,0.6982172658141917,0.7195806187422479,-0.9560773018785178,-2.035644345894093,1.8484031024933327,-1.4821041813310618,-0.20505069245360344,-0.27104513181982093,0.18863801119718399,-0.021274197863489535,-0.8130640040106952,-0.7215634098617425,-1.1107589839004244,-0.7222139703304887,-0.9736100807135242,-0.7955721368104403,-1.0831993961574016,-0.6997203883887562,-0.9514767296077534,-0.4492311417857582,-0.6189624399998442,-0.5097137827572659,undefined,1486739607276
903d185fccf839df,-0.3853934019048333,-0.8927403921962445,0.7754167010774873,0.7664088301826587,-0.9330167687501756,-2.0131415654284632,1.8680898300775781,-1.2986867384939074,-0.24249910476459158,-0.3467144200429523,0.1926963782095184,-0.0051646074175163694,-0.9218610739750446,-0.693788401721644,-1.1044431959334098,-0.758584872679573,-0.9826085306119141,-0.7863577039037882,-1.085690260731626,-0.7073272201565133,-0.9463162358814682,-0.44529711614040196,-0.6329151919971033,-0.5170277541029312,undefined,1486739608782
903d185fccf839df,-0.5101346332496607,-0.8980235417933331,0.8896207634093747,0.8761922812138309,-0.9091950971537972,-2.0036382700071766,1.923097480978989,-0.9231909299937591,-0.2420082161053541,-0.36376556075518895,0.17408997648496338,0.03670948960400484,-1.0001949643493762,-0.6956400710894464,-1.092864228013476,-0.7545436746546821,-0.9921887761266022,-0.77883416627799,-1.067799415693103,-0.7238805494824521,-0.9376988647394289,-0.4541608041623309,-0.6379666363637659,-0.513990883441668,undefined,1486739610533
903d185fccf839df,-0.4851863938817772,-0.8804130918496915,0.9961686960029328,1.0447769109700618,-0.8740900175646509,-2.0112828336493225,1.8924654988087872,-1.121400189217541,-0.2278913598422298,-0.3955544479691333,0.1654466071203648,-0.032517938941404576,-0.9131573083778967,-0.7067500613947112,-1.0791800035730652,-0.7565642842663981,-1.001312104688732,-0.7872316500149984,-1.0663650698181737,-0.762777021643174,-0.9481012004464596,-0.45073159960405595,-0.6338561570953101,-0.5253881685157165,undefined,1486739611791
903d185fccf839df,-0.4546940668156209,-0.8264076243385469,1.1346169150359136,1.0820809507139546,-0.8185986818720686,-2.0073603950950267,1.9016698140741137,-1.0551536717775374,-0.2234808701448498,-0.4963128034713067,0.1964669499780464,0.0008133011386305735,-0.9827874331550802,-0.7141567388659205,-1.0707589406799893,-0.7141314965527229,-1.0073925524959857,-0.7815003366236752,-1.0633564410188612,-0.7241731188554844,-0.9375058508367581,-0.45886566139799295,-0.6419355280902594,-0.53211059245017,undefined,1486739613334
903d185fccf839df,-0.45192204021918936,-0.7964698740483522,1.1352550529159158,1.0978940451143675,-0.7932752940669171,-2.003894487233083,1.8938882177687717,-1.0995940450003945,-0.16756540066596073,-0.44327353573828615,0.11514342194852466,0.09791175290771267,-0.8870460115864528,-0.7187858960969581,-1.0812852674557756,-0.7201933253878708,-1.0088440338130775,-0.7899738160336222,-1.0609425409789057,-0.7141487295237209,-0.9405632295750798,-0.45338419136447916,-0.6405303764244313,-0.5237583064831317,undefined,1486739616286
903d185fccf839df,-0.5364689549265795,-0.7958828005942462,1.2245768206667076,1.2231998811147935,-0.7819507394289906,-1.9894112774466375,1.9494665323554672,-0.7253842304715092,-0.20381335666075154,-0.4919849298925632,0.1528158982829065,0.10933242970913531,-0.8043602384135473,-0.7576709269192579,-1.0833905350196031,-0.7161521202967996,-1.0473963117158773,-0.8176424460355245,-1.0635103708581481,-0.6508457208998409,-0.9446010276749353,-0.46261245305792986,-0.6255696464087181,-0.5287945227915178,undefined,1486739617786
903d185fccf839df,-0.5212228086462062,-0.7448124811436894,1.4708489939163014,1.4961236054251317,-0.7012697302108141,-1.940266658726959,1.9123494590340018,-0.8863731330299868,-0.179776835869869,-0.3195598963524575,0.07520079574375273,0.03282561077301767,-0.8391753008021391,-0.7558192769776173,-1.069706284811374,-0.6979666691222575,-1.0397417595246619,-0.8162745307105811,-1.04833428803605,-0.6471808913682678,-0.9384765474626353,-0.46847821012891533,-0.614365254099768,-0.530254257382642,undefined,1486739619310
903d185fccf839df,-0.4491500481281676,-0.7389423311624754,1.5282699669537714,1.5830309453598075,-0.615713300112277,-1.8987596161691584,1.8783250366808277,-1.041248427678147,-0.14115410500526432,-0.23896025115494599,0.142132640881478,0.025416598217144107,-0.8957497771836007,-0.8187759642536363,-1.1097063537996277,-0.6716987653684906,-1.0523245139581037,-0.8240703848646772,-1.0606486753808648,-0.5805056230166411,-0.9364193785202787,-0.47080346397233436,-0.620910815418185,-0.5243426585117869,undefined,1486739620785
903d185fccf839df,-0.32440871326711096,-0.7189837919983559,1.8007009646814145,1.864622397190449,-0.6504275349810263,-1.9160053034197255,1.8401139546432677,-1.2990532814502131,-0.11628035089607913,-0.1664960394205794,0.11583272173957573,-0.020407364916088824,-0.8957497771836007,-0.8122951376547963,-1.1107589839004244,-0.6636162986569051,-1.0248510211122142,-0.8217778588714314,-1.0416313434241733,-0.5104119003413558,-0.9178817940644296,-0.46723105254306924,-0.5942858106721748,-0.5122217133407843,undefined,1486739622284
903d185fccf839df,-0.1359106631719005,-0.6790667721261016,1.5161476344662752,1.6010600375408848,-0.5980527689660053,-1.9161893136065145,1.8951137114204397,-0.9237536410821987,-0.0049784851491876,0.15519822682546644,0.19186395972145118,0.006126907269784473,-0.865286597593583,-0.8261826352494583,-1.077074732328121,-0.6090599451332788,-1.0453974334050182,-0.8228417934369164,-1.0243142362597148,-0.47434874308511227,-0.9053638350479757,-0.46224346170697916,-0.6119675987893876,-0.5220915970540044,undefined,1486739623788
903d185fccf839df,-0.3521290482422455,-0.7424644065372076,1.1965040908225506,1.2180017406288706,-0.6800400606717977,-1.9588027453622516,1.8508041078180324,-1.3064074718973477,-0.1213046143513012,-0.08435634191826358,0.127977389888777,-0.07403148734656675,-0.9175091911764707,-0.8326634747990728,-1.0654957754515375,-0.5827919848500688,-1.0245701851746798,-0.8137793514165986,-1.0389025873229616,-0.4654638405068612,-0.9077426799410769,-0.46094961008042035,-0.6094650298514815,-0.5105838005981981,undefined,1486739625300
903d185fccf839df,-0.38539336739942354,-0.7090045224162962,0.9642681554265605,0.9966810934975378,-0.6947074612677733,-1.9723449412516119,1.8764762769894714,-1.1451897445655594,-0.23872485550189199,-0.3805608375801221,0.11078511116980083,-0.04946958118578113,-0.9044535427807487,-0.7947042883737552,-1.0665484018712175,-0.6353278488870456,-1.014991032533742,-0.8067434506588161,-1.0352572484219016,-0.5194507909819688,-0.9107606794563999,-0.45332118700900964,-0.6179085904958509,-0.509546466786977,undefined,1486739626783
903d185fccf839df,-0.4103416067673071,-0.7870775902364215,1.1365308204020212,1.0655866342457019,-0.5876436431289621,-2.0102905769225368,1.8782724311838588,-1.125772828111322,-0.26945068062369526,-0.4111528793088073,0.08889522266140379,0.029501765429621074,-0.8391753008021391,-0.7743359447540914,-1.0402325904534269,-0.6676575037479763,-1.0244378177026163,-0.7900371457306195,-1.0219703038636296,-0.5751623669566535,-0.9058785695028427,-0.4446658464203945,-0.6386826993167256,-0.5093381511110138,undefined,1486739628291
903d185fccf839df,-0.37984931420656054,-0.7559657953359881,0.9814945744062762,0.9561069543708798,-0.5545339868347757,-1.9979293046212354,1.9004285457917507,-0.9645827218990327,-0.19501028731776834,-0.4044489529879026,0.06826242809126579,0.011308285075443712,-0.865286597593583,-0.7798909463821111,-1.0549694339512836,-0.6797811896829938,-1.034279877256052,-0.7821272992215101,-1.0290790633289586,-0.6465187628316498,-0.9159321068964182,-0.44181339796418695,-0.6474262134675033,-0.5202497546507762,undefined,1486739629784
903d185fccf839df,-0.25926601924015114,-0.7559657807219918,0.8054028280138531,0.8551723805225224,-0.5793019388577293,-1.9753333552573702,1.951520414621945,-0.6293713108885202,-0.1647651956654917,-0.57516038025078,0.0954266153671207,0.057302486760975165,-0.8217677696078431,-0.7808167713529314,-1.0707589369988724,-0.6312866013988921,-1.0429218664997058,-0.7967943965956399,-1.0363487498848798,-0.6400822118273635,-0.9228842884387105,-0.43805714648740923,-0.6525939619329997,-0.5181858360804856,undefined,1486739631280
903d185fccf839df,-0.24679189955620937,-0.8199504593592116,0.8417695713393922,0.8912876062612974,-0.5908939212565616,-1.9423979122783248,1.9482094904899314,-0.6417124112985099,-0.10786650461000843,-0.3984818668525161,0.08141120035444303,0.06290742350281793,-0.9088054255793226,-0.7882234747256898,-1.0749694721265273,-0.6232041770843889,-1.0778508713502417,-0.8238487314650119,-1.0343266715170518,-0.6443475802601608,-0.9335077329193204,-0.44272779985053423,-0.6458380817852613,-0.5228103740998504,undefined,1486739632787
903d185fccf839df,-0.31470668919042016,-0.7495086011286605,1.0937839689612077,1.1738395324271929,-0.6498206784556525,-1.9492155952320633,1.9024324581260923,-0.9446966594969275,-0.12624506908802482,-0.3084060675656691,0.09986097362855197,0.09117777434363822,-0.7434338792335116,-0.8048884666589743,-1.0718115597374354,-0.6191629437285961,-1.0615897772698106,-0.8282817911865397,-1.0421630995215354,-0.6316592611181845,-0.9415352497538779,-0.4369139784239302,-0.627234189830077,-0.5243452577035034,undefined,1486739634301
903d185fccf839df,-0.2758982133241499,-0.7395293753885892,1.0478471905312317,1.0748244438376369,-0.7348525369309478,-1.9479647935351403,1.8955791892523095,-1.0014014511220168,-0.19348462935399083,-0.36709962285749537,0.05536552796483179,0.024342750640180023,-0.7086188168449198,-0.7993334650309546,-1.0781273734722683,-0.5565240952286628,-1.0601441895417265,-0.8292507318903073,-1.0537148353310641,-0.5892673413161255,-0.935692343962295,-0.4470362719038633,-0.6297623967555235,-0.5237905354132163,undefined,1486739635775
903d185fccf839df,-0.4242017742548743,-0.7694671549067761,0.5112797168312262,0.5047050224842475,-0.8267449491212843,-1.9674069549057198,1.9386843392020405,-0.7723777303959125,-0.19646490363631455,-0.4350238077576482,0.09533042433160843,0.037044880679242456,-0.8217677696078431,-0.7910009561135378,-1.0802326263116282,-0.5039882594564074,-1.0372355079082425,-0.8314292640391767,-1.059641134388292,-0.5272885993102593,-0.9275074199534774,-0.4498564422721137,-0.628342989802327,-0.524285936439978,undefined,1486739637352
903d185fccf839df,-0.39786741807254583,-0.7947088290539881,0.05892967025284348,0.03060292070838575,-0.9958520974656144,-2.027252097953925,1.9422608865779043,-0.8479652358947684,-0.19548027109358349,-0.5158649151382577,0.12082602629601519,-0.12158017809571886,-0.8043602384135473,-0.8335893127206676,-1.1118116176823383,-0.48176160319079403,-1.0384328740161957,-0.8536262319163423,-1.0776719162010011,-0.5026048913540981,-0.9399714574627661,-0.45827328277083007,-0.635437787794494,-0.5189128264689005,undefined,1486739638849
903d185fccf839df,-0.4214296786476234,-0.8393219908322078,-0.17330626514314654,-0.22353450897401644,-1.0389800256900543,-2.0624748533909742,1.8978592377592256,-1.1812028033161794,-0.248494739233411,-0.6959841950912208,0.16027177740108384,-0.3060013584739001,0.17481339126559717,-0.83544098208847,-1.1349695387977385,-0.36052516781144156,-1.0202265680656162,-0.8550574772095796,-1.092715059695964,-0.42829199334761087,-0.928978818582943,-0.45933621248542034,-0.644521170596081,-0.5283330666252899,undefined,1486739640303
903d185fccf839df,-0.40063944466897733,-0.8381479389149707,0.021286905304249506,0.01619304887417017,-1.0241789086659623,-2.0568520690388343,1.9190239159375622,-1.0303294422485028,-0.2603279921396745,-0.5193015942974633,0.15929054987981658,-0.3450297328218322,1.262784090909091,-0.855809332183521,-1.1276011060054594,0.045617003768275384,-0.942244835244676,-0.8808895547575679,-1.0837451482071176,0.04585693828248923,-0.8348465974032178,-0.46756764511022264,-0.6525082011905002,-0.4829010531472199,undefined,1486739641791
903d185fccf839df,-0.737441090200322,-0.8070361586285334,0.1973783975597232,0.1349958111541329,-1.1213993173376358,-2.029735067225182,1.9395521848202617,-0.9026910597926775,-0.25866530020113293,-0.4806835836355701,0.15981281409778336,-0.3947732542773289,0.4141669451871658,-0.858586839472918,-1.128653739787373,0.12037953820322633,-0.9106581035654794,-0.9074309217981045,-1.086173041428398,0.1679974076162832,-0.8250897049213061,-0.4745985209113738,-0.5967535664480818,-0.4776750007515123,undefined,1486739643296
903d185fccf839df,-0.5281528406318752,-0.8586934930772117,0.2713876516969068,0.26588690722618535,-1.0358017444989576,-2.050034387154238,1.940985425089144,-0.8932532857111688,-0.28570026268552356,-0.7614599406107092,0.14209284663662292,-0.29707941713395253,0.10953514928698754,-0.8613643467623152,-1.1118116140012213,0.07592622567199965,-0.8940488791824979,-0.9070826102280478,-1.076104630907181,0.12916252892771332,-0.8298573050578191,-0.4743813216033649,-0.5839557376943376,-0.48700890897126253,undefined,1486739644787
903d185fccf839df,-0.6307178937106603,-0.8111452343873907,0.4194061599712741,0.42646888217299783,-1.0508702910184071,-2.0356373592827297,1.8913662409609833,-1.2162859593887894,-0.27450422729993845,-1.01940498784545,0.12624926418564386,-0.3291658589755528,0.2749066956327986,-0.8446993095013198,-1.1065484524538864,0.17291531744603855,-0.898957716220638,-0.8871021735016894,-1.0754189432027013,0.12836181101650132,-0.8193542201531019,-0.48140803719823777,-0.5974118329173971,-0.4767297470575814,undefined,1486739646284
903d185fccf839df,-0.554487162308794,-0.8199504593592116,0.4021802492654572,0.4049134428970361,-1.0493480069924888,-2.041350982538239,1.9217694265635217,-1.0110393642916953,-0.2777052555944407,-1.0652101287417601,0.12820235948380698,-0.25093723417672437,0.44027824197860965,-0.8419218151626972,-1.0949694808528356,-0.22716498996762846,-0.9838146456771935,-0.887114839405654,-1.0725642448237964,-0.20829440337767607,-0.894164023492301,-0.4811754996838635,-0.5729114330436134,-0.5091888959927671,undefined,1486739647803
903d185fccf839df,-0.7000186966430869,-0.8633896276761789,0.37984974379352193,0.351129455760789,-1.2477796757870223,-2.042925548558929,1.9264820375129403,-1.0217757154264517,-0.25961831561845916,-0.9190281100503264,0.10099512331366405,-0.28981921211808115,0.2879623440285205,-0.8696968492043448,-1.11602215649111,-0.42518460472454983,-1.0605328020227867,-0.9164427004627865,-1.0855643194326627,-0.38026424241797474,-0.9418301849803655,-0.4800182352586886,-0.6240751643571035,-0.5187003649702826,undefined,1486739649269
903d185fccf839df,-0.6653682951768737,-0.8945014371906086,0.2069486868011096,0.16146304423325952,-1.3354755275787036,-2.0509521066871215,1.9304293667505028,-1.0180034685538637,-0.24502763595061208,-0.650217143949815,0.14353333022033693,-0.31058085907396904,-0.03842886586452762,-0.9122851993360872,-1.1170747865919066,-0.2473711284818708,-0.9698147700177869,-0.9245108708517372,-1.0941004283718874,-0.12642086828011725,-0.8903595835187265,-0.48149737559473715,-0.6205692922333702,-0.5035931631684606,undefined,1486739652132
903d185fccf839df,-0.6612102380295215,-0.8851091972206664,0.1329389243900271,0.12236030332673882,-1.3546583522253615,-2.0466360264060106,1.8892097864079664,-1.2926111941496525,-0.24694748178890472,-0.6373029593133782,0.14044981298685286,-0.2759438329072398,0.031201258912655985,-0.9122851993360872,-1.116022152809993,-0.26353600537559885,-0.974041619814537,-0.9246691942941819,-1.09583563751824,-0.1306400421843144,-0.8916046744210132,-0.48076993163025017,-0.6263608561918331,-0.49936842803162723,undefined,1486739652282
903d185fccf839df,-0.7318970025020493,-0.8252336089563003,0.26436940570163026,0.2824749758269093,-1.350163501717316,-2.0311908413023443,1.9327961961529148,-0.9924103225586457,-0.26436267922683443,-0.5321087304054769,0.23961583827737568,-0.14921430582873718,0.557779077540107,-0.8882135299315934,-1.117074779229673,-0.22110322472810393,-0.9831673737776857,-0.9115916655505375,-1.0945622177184706,-0.10955957062413202,-0.8821547089089766,-0.4820695208598737,-0.635662945639164,-0.5079605232572724,undefined,1486739653787
903d185fccf839df,-0.7499151926315589,-0.8023400094155699,0.7288420389044585,0.7322983321841456,-1.3199441233041613,-2.0079892891026154,1.9499004577833825,-0.8567948225870193,-0.292566309903451,-0.5037349905813687,0.22592158936244588,-0.2831227066831079,0.23138786764705885,-0.9891294101083173,-1.1402327077073071,-0.01904243314483286,-0.969793771484663,-0.9225603236011405,-1.107968106660839,-0.0003383993891389305,-0.8710644154096333,-0.47951052762736074,-0.6223028635602735,-0.5050974063413207,undefined,1486739655277
903d185fccf839df,-0.7707054438629097,-0.7630099606994485,0.7243758361552917,0.6908769198149355,-1.3883542953492871,-1.9770127364072672,1.8909586146152266,-1.2302037256066667,-0.30484754002076575,-0.6070391967417424,0.07814290647571046,-0.230048406835239,0.07907196969696971,-0.9002493646338403,-1.1612853649399968,0.007225484741294791,-0.9544553797591314,-0.911572666492502,-1.1351787042825776,-0.04711887144504356,-0.8933346074635166,-0.4706349537486412,-0.5991896984978582,-0.5230002899842212,undefined,1486739656759
903d185fccf839df,-0.7443711739441056,-0.7641839760816951,0.8985526606338096,0.8316142248815855,-1.337131524217745,-1.8929435058811266,1.8522215739799808,-1.3731361393068162,-0.252957742902996,-0.4317656401576692,0.052809596627475766,-0.08233741702955066,-0.15592970142602494,-0.8585868200467562,-1.107601093598034,-0.07966058017270526,-1.01633744999129,-0.9008953239119624,-1.0907699460948532,-0.09517741832321057,-0.8838128422416189,-0.4696720822288676,-0.639131905720967,-0.5415597546768364,undefined,1486739658260
903d185fccf839df,-0.4782562928852887,-0.6896330128642942,1.1658798260061827,1.2942680910384128,-1.136087289203656,-1.7691514300566393,1.8666670995948542,-1.0713278811215174,-0.2538540937148149,-0.32380051528168435,0.2195408779363148,-0.15918668879654274,-0.3909313725490196,-0.8409960031426514,-1.0202325522781832,-0.35244272936457754,-1.0395028837497902,-0.862973657791846,-1.0557439110725384,-0.36888478836569705,-0.9104044207846169,-0.46742302126378255,-0.6216038997595572,-0.5469024800415209,undefined,1486739659787
903d185fccf839df,-0.06106594506824988,-0.5822092097520957,1.2392511964003134,1.4012740599932112,-0.8124272612443612,-1.7389085898495764,1.9295878401173545,-0.5135126638200359,-0.36567219930371697,-0.49550334163917986,0.20374657463315232,-0.15424910186451166,-0.042780748663101595,-0.8650676725471452,-1.027600992432696,-0.5342974248306885,-1.1476505754123678,-0.8595665346802958,-1.0248949717949274,-0.560179676293,-0.9344734420000217,-0.4566875204577539,-0.6456100547291933,-0.5351957011997421,undefined,1486739661284
903d185fccf839df,-0.14422674296119503,-0.46304498976549996,1.2245763123928086,1.3868582483346832,-0.6323761319712881,-1.7916611974593584,1.9078446104146245,-0.6647804735835133,-0.25956476663250627,-0.5113017548385755,0.22420648665327492,-0.1725701311135977,0.40111129679144386,-0.8456251603736891,-1.0212851971034476,-0.4373082765272066,-1.1603182159660643,-0.8255332949814981,-1.0080886320569147,-0.4586423275182921,-0.8922418275605565,-0.45908567412629875,-0.6443083083335727,-0.5586574541788092,undefined,1486739662782
903d185fccf839df,-0.17749123464542174,-0.6737835786870244,1.326020666768046,1.335135317394458,-0.5422837066880596,-1.885287295447162,1.9307923005789218,-0.6118101030660008,-0.235069038154429,-0.8468453473269311,0.22037014953354195,-0.046101823396962255,-0.4649133801247772,-0.8104434747623813,-1.0128641305292547,-0.3665869613156877,-1.0980569681983854,-0.8277308265372131,-1.0299116843860527,-0.4180212272732296,-0.8903840989417812,-0.4597751375508102,-0.6050730056026812,-0.5543972663060063,undefined,1486739664292
903d185fccf839df,-0.23847588877773432,-0.6397366649539954,1.166517455612286,1.2309559256045068,-0.5073432004921121,-1.9044872140413565,1.9398440872433569,-0.5686185686583641,-0.18131691868837202,-0.5412688945406455,0.21378445349822547,0.0011964480639440355,-0.6389886920677362,-0.7835943045438776,-1.0339167914430614,-0.39083426252391895,-1.0229348594477703,-0.8225378119355451,-1.0212146481176707,-0.45485430641138047,-0.8902427266348653,-0.4471128362394178,-0.5995684448736358,-0.5579538273282004,undefined,1486739665782
903d185fccf839df,-0.371533234417266,-0.7283760465822943,1.02934525820236,1.2344375950104702,-0.639205842102732,-1.9453700209494988,1.972950720234219,-0.45856058893785034,-0.0356766437397743,-0.36908967032970746,0.10041333410839444,0.05238422645351915,-0.6607481060606061,-0.7058242493746655,-1.0370746891076856,-0.2898038667322834,-0.9757171785313069,-0.8062114827753453,-1.0314369891755197,-0.4455844419969322,-0.886134728745318,-0.4231020925307086,-0.5893411431532954,-0.5450783349642974,undefined,1486739667281
903d185fccf839df,-0.2731260832114892,-0.7189837773843598,1.1824681071058962,1.2502976220845756,-0.5645831098705857,-1.9536131993429027,1.9664866497027942,-0.45856383230431974,-0.08300918657443596,-0.5709042013289743,0.030117157639850588,-0.05636615144966285,-0.7738970588235294,-0.7067500872962603,-1.0212851860600969,-0.45347311102385235,-0.9670616356681895,-0.8026207031123042,-1.0215644889734745,-0.5229924274034999,-0.898080142866019,-0.4284565453771767,-0.5782956272035875,-0.5270793026076432,undefined,1486739668791
903d185fccf839df,-0.542012939108623,-0.7084174928041787,1.4823334426607448,1.4693419914646684,-0.7259759829594195,-1.95818549638285,1.9377980917684658,-0.7028208384250871,-0.1064535759466641,-0.5453957750066253,0.041768464578882315,-0.0018807786459179993,-0.7651932932263815,-0.6836042363871995,-0.9981272759880473,-0.5262149863838246,-0.9597568594848495,-0.7926589828018898,-1.008158600110628,-0.5788579879538083,-0.9019623561693013,-0.42278370985388863,-0.5872863108325193,-0.5216945549478842,undefined,1486739670292
903d185fccf839df,-0.48518646289259665,-0.6737836079150168,1.2571152449861325,1.2450208681123276,-0.6930103273060014,-1.9814289740689754,1.908457339432588,-0.9119230347376754,-0.15427723421648484,-0.5557373258547502,0.07426553459069005,-0.05080628025116143,-0.6650999888591801,-0.6836042299118121,-0.9981272612635796,-0.5342974106983278,-0.9728452100364962,-0.7857244088771858,-1.0044432941039991,-0.5883280343264903,-0.8994177813943564,-0.42549871932914207,-0.6168854474900083,-0.5047507740646846,undefined,1486739671782
903d185fccf839df,-0.5212228431516159,-0.680240772894352,1.0714539717631713,1.0869707881203559,-0.8139495550328224,-1.990494374002778,1.9231395410740586,-0.8703062675277162,-0.10314431803409717,-0.2775281955207476,0.10168039988008186,-0.08804805727535832,-0.6041736296791445,-0.6882333806674625,-0.9907588284713006,-0.5504622875920558,-0.9769059126148476,-0.7983712971850075,-0.9807031155518319,-0.6074375056907488,-0.9021993459879716,-0.41286589209309466,-0.6217097081045626,-0.4945987143047977,undefined,1486739673286
903d185fccf839df,-0.7637753083610115,-0.7242669415954446,1.2130926260592134,1.2313297648279096,-0.8295426657415776,-1.9920176970039496,1.857681044922988,-1.3081890355682786,-0.12734684940938912,-0.25358325636138984,0.1344795123984121,0.021531053353329745,-0.5824142156862745,-0.7400800970643785,-0.9760219849734437,-0.6131011219596285,-0.9750659415858106,-0.8253623041955553,-0.9714393378654723,-0.5954421168496393,-0.9086243714734414,-0.418727796136601,-0.6323335735206685,-0.5043502107598445,undefined,1486739674799
903d185fccf839df,-0.740213047785934,-0.743051421535329,1.3094323856683325,1.296220297189807,-0.8816397203511891,-1.9903569483529941,1.8892729069287033,-1.1001530180945214,-0.09076005366299833,-0.4013685887774175,0.13634246122847563,-0.03125911633722561,-0.6302849264705882,-0.7215634422386789,-0.9907588211090668,-0.6151217103728033,-0.9621720033779183,-0.8296117092314486,-0.9904776599000046,-0.608161232572875,-0.9201980645775818,-0.4202811914117583,-0.6355007312077078,-0.5019728325197946,undefined,1486739676285
903d185fccf839df,-0.6972466700466554,-0.6479549187696834,1.2437171450125308,1.2379990065836244,-0.7735370381752431,-1.928340954571198,1.9321939758735884,-0.7145905525378702,-0.22310522942198951,-0.6812872056895354,0.19258523541828945,0.09656024550595077,-0.6999150512477719,-0.7308217696515287,-0.9844430257798183,-0.6252247654975637,-0.953074910077077,-0.8063508070933146,-0.990176796304377,-0.5884358220714587,-0.9094515490050883,-0.4206875097382992,-0.6051464805599518,-0.4955586561786571,undefined,1486739677778
903d185fccf839df,-0.34519891274034725,-0.5880793012773249,1.116114474433143,1.214706280675355,-0.6426618289377379,-1.896532863268494,1.920196798854652,-0.737193254227279,-0.21465184246940008,-0.2494499287213134,0.10580040485114976,0.0034618937881204714,-0.8217677696078431,-0.691936738829229,-0.9307587507567386,-0.3484014677440633,-0.8835515638623411,-0.7569031841502813,-0.9313406139115493,-0.3452173751165289,-0.8234109569787528,-0.41742894176915213,-0.5486520529806307,-0.4111645686667754,undefined,1486739679331
903d185fccf839df,-0.21352751138821185,-0.604515750452716,1.0063766148504225,1.0433644190022278,-0.7852421631454737,-1.8276409551470543,1.8829035129882958,-0.9122531984121897,-0.34843657732149547,-0.3056905002481397,-0.0922892255397296,-0.0743040592827455,-0.6607481060606061,-0.670642544337196,-0.9507587815697485,-0.3908342201268366,-0.8651462280663654,-0.736764423156515,-0.9378196593764283,-0.2892594253205476,-0.8028732317995385,-0.37706377192855045,-0.5756758294580606,-0.4005159927452378,undefined,1486739680788
903d185fccf839df,-0.10957644501121094,-0.5734039263242902,1.00829052021653,1.0902829475939169,-0.8658614626265773,-1.6819260781029708,1.8444005264325973,-0.9563005610149006,-0.4360805135911779,-0.24354363018072595,-0.11202151774979038,-0.0940232431349396,-0.2647267713903743,-0.6021308683839318,-0.9833904104034891,-0.287783250054387,-0.8243970628816173,-0.7124712511878927,-0.940968223671461,-0.26126505218577656,-0.7828151073062496,-0.3855063680620757,-0.5669038888757431,-0.3816532044500611,undefined,1486739682285
903d185fccf839df,-0.5420130081194425,-0.5111802780674384,0.9865984067615463,1.0811141516192972,-1.1077913450270107,-1.648918429925454,1.8607868506699674,-0.8707293893438833,-0.32779351225372144,-0.5757993991422597,-0.10063911644473304,-0.10331885818375018,-0.7695451760249554,-0.5799108359703039,-0.9949693488744878,-0.2635359629785165,-0.8069060352754497,-0.7049477142541777,-0.9486437257659456,-0.36814566289003914,-0.7964428581600911,-0.3807627085036202,-0.5774502887009958,-0.35981084076392805,undefined,1486739683810
903d185fccf839df,-0.6459641090018531,-0.4495436155807157,0.7881769173080362,0.8174328549153639,-1.1821672179435598,-1.731415423742607,1.8444320814553568,-1.126583246226298,-0.25178699673684396,-0.5930627936460607,-0.02409339517356778,-0.034201877498516844,-1.02630626114082,-0.5743558472930588,-1.0244430947680718,-0.32213356399029636,-0.8305086472538207,-0.72449751167973,-0.9529817487725191,-0.4223789888557697,-0.8118139134620787,-0.39141982127569136,-0.5846233059217444,-0.36717905339454054,undefined,1486739685281
903d185fccf839df,-0.6986326833448712,-0.6144950054207796,1.3993915288882781,1.422350139135446,-1.1103833350932495,-1.883498441102782,1.8955686679434112,-0.9922853846787716,-0.26688981496928893,-0.5729783951391847,0.03749646975669823,0.029675902937628326,-0.843527183600713,-0.6761975653913774,-1.0391799382659286,-0.508029471613659,-0.9265863197273643,-0.7573971537626546,-1.0074729111827359,-0.61619922315557,-0.881130170562888,-0.39652929423527933,-0.623809072349789,-0.4490787686680666,undefined,1486739686795
903d185fccf839df,-0.569733343094577,-0.6215392292402248,1.5065775993618382,1.5255808988578745,-1.0302474688803882,-1.9372526224732354,1.872397446055987,-1.214381047033272,-0.2107385105322581,-0.3739345301727302,0.20147443230569104,-0.052323938271158166,-0.7913045900178254,-0.699343409825051,-1.0412852131919899,-0.4999470826300577,-0.9282359283838817,-0.7662189443993849,-1.0170585430319283,-0.6217580621905388,-0.8921923684735531,-0.4433017046016982,-0.6177964597181194,-0.45169879360433124,undefined,1486739688273
903d185fccf839df,-0.4047975535744441,-0.6344535738128915,1.4931794993882366,1.5608592864468436,-0.8529631967198636,-1.928634437988712,1.927315686782199,-0.8057101390839274,-0.1818458751396747,-0.3907790039018372,0.24607958526118942,0.05982752373552336,-0.6215811608734403,-0.7095275881102702,-1.0676010282908974,-0.6050186976451253,-0.9899077060728264,-0.7752750533542189,-1.040896677860045,-0.6929758699294735,-0.9187812943694709,-0.44394291297380273,-0.6270738978757164,-0.5053112392416345,undefined,1486739689800
903d185fccf839df,-0.48241443629616515,-0.5945365247126447,1.2500972531278054,1.3120204648208846,-0.9134019545744405,-1.9361415763724883,1.8640635910232795,-1.2504413776392302,-0.15242169653284368,-0.20621180711823947,0.23723182777967833,-0.04966672075931926,-0.6172292780748664,-0.7456350986923982,-1.056022075095431,-0.6050187259098467,-1.0071498585371212,-0.7782262045929736,-1.0370414347244405,-0.6280098289819976,-0.9106903912921934,-0.4406101379677025,-0.61780880591902,-0.5065300340273785,undefined,1486739691289
903d185fccf839df,-0.5323109150319322,-0.6461938445473269,1.1556716530217435,1.111713634927236,-0.9149962343765595,-1.9472310846959824,1.9049676012353085,-0.989930450953658,-0.20302206543261805,-0.03498929593531462,0.20358545667134662,0.10121986321089203,-0.5867660984848485,-0.787297636804095,-1.0612852403238828,-0.5565240810963019,-1.0113256020669095,-0.7822349581788393,-1.0390075381587096,-0.5908071843664379,-0.9062972415537927,-0.44804762211224414,-0.6197182340900469,-0.51457760040242,undefined,1486739692790
903d185fccf839df,-0.46023818901930336,-0.7154616727816353,1.101440606973436,1.134718408199795,-1.0461080152981195,-1.9675606841291746,1.8652838219254544,-1.3066933311517093,-0.2142652617872503,0.27071334379671363,0.19295464965064377,-0.00388086141651104,-0.8000083556149733,-0.7891493061718973,-1.0623378741057965,-0.6575544910202983,-1.0227307086429016,-0.7814370071536813,-1.0278126409578892,-0.6267471556745882,-0.9063437225665043,-0.4460193897629862,-0.6245672919051154,-0.518057076816601,undefined,1486739694301
903d185fccf839df,-0.4131136333637386,-0.7219188523749667,1.1811918313458918,1.1512072210920905,-1.004656659830028,-1.9542607272443013,1.8656046548054541,-1.2659387040802712,-0.19589622980773588,0.10936198272652213,0.08077453378324895,0.009612664538380725,-0.8130640040106952,-0.7965559706923321,-1.0760220985462072,-0.6898842165430328,-1.0306112567965546,-0.7856294156189647,-1.0433245708733454,-0.664966097393432,-0.9205174881563059,-0.4484414189573094,-0.618665454678293,-0.5109167994663015,undefined,1486739695791
903d185fccf839df,-0.562803173087269,-0.7377683157802288,1.1110108962148222,1.118184021659587,-1.082354816799021,-1.9574913826161733,1.8325322129259451,-1.5053436294545695,-0.18573272027030996,-0.03764383236522335,0.09906950089484773,0.06563965512618082,-0.691211285650624,-0.79933345208018,-1.0676010246097805,-0.7606055176221909,-1.0413828662572484,-0.7730458560835171,-1.0449478308927445,-0.7060337516544622,-0.9199009488501634,-0.45000643952991864,-0.6225806246254327,-0.5188653691645275,undefined,1486739697301
903d185fccf839df,-0.3119346280885789,-0.7706411556750266,1.1467395016603592,1.1965827219111407,-1.0380543174657666,-1.966843278484051,1.8196382807823193,-1.5886298368408793,-0.17619864649294106,-0.3752171454652496,0.10559548150610067,-0.08308066640992995,-0.8913978943850268,-0.8048884796097489,-1.0739168273012627,-0.7282757567685545,-1.017509685064059,-0.7822349569829194,-1.0384198068402868,-0.6994740141770526,-0.9243215743791322,-0.4425644644482362,-0.6050701202414158,-0.504515262041462,undefined,1486739698850
903d185fccf839df,-0.46023818901930336,-0.7700541699048975,0.8130589577521824,0.8566023774432212,-1.0315537522642373,-1.9951109256523651,1.8362244664166003,-1.5112562526349995,-0.20482482183383102,-0.41919986933615233,0.15022654765897164,0.0315871662825983,-0.7608414104278075,-0.7919267940351326,-1.0623378667435626,-0.7222139279334064,-0.9860397273873368,-0.7863577037764449,-1.04340853303206,-0.6996433978173888,-0.9272950134699608,-0.4454401339185766,-0.6324571014184132,-0.5096025866519823,undefined,1486739700300
903d185fccf839df,-0.4990466303801639,-0.738355316164354,0.7498960144794401,0.8530473168950659,-1.0184806304221077,-1.9961404489943377,1.8842867964190648,-1.1956445150802981,-0.18251444814233175,-0.5194441015857052,0.11214734433558211,0.07501720528471091,-0.33870877896613194,-0.756745088997663,-1.0981273932419275,-0.7060490651720392,-0.9849703739132697,-0.7930389594723634,-1.0579269156990379,-0.6841371641684153,-0.9357070299356917,-0.4325855028013897,-0.6272004366455234,-0.49486229458190656,undefined,1486739701793
903d185fccf839df,-0.5558731756070098,-0.741290391154961,0.9355577959763002,0.9559895462387314,-1.016176632973149,-1.9957491368129858,1.885528067843993,-1.1910895177985417,-0.19320692517723062,-0.35467926423102303,0.08204902992625583,0.07884071277193895,-0.12546652183600712,-0.7530417567374457,-1.079180007254182,-0.6838223947740651,-0.9897806331289504,-0.8008158143248107,-1.061698196957313,-0.6584987526215091,-0.9377289180121946,-0.4347236055456262,-0.6313662923121763,-0.4936695346863504,undefined,1486739705122
903d185fccf839df,-0.5503291224141468,-0.7283760611962905,0.9534220986990687,1.0058534949658584,-1.0266474720661816,-1.9951691560651696,1.9086282876567038,-1.0284790233418397,-0.18350715764060033,-0.31466794424989447,0.08798965556220255,0.06482448501212609,-0.8783422459893049,-0.7197117469693275,-1.068653669435045,-0.6009774501569717,-0.9803023362108595,-0.8053692007513422,-1.052392438442396,-0.6103324149155047,-0.9288389354418249,-0.42939656999334885,-0.6277769383312061,-0.48552465358226443,undefined,1486739706320
903d185fccf839df,-0.48380041508897115,-0.767119051072302,1.1467389933864605,1.185258053196885,-1.0606519888399748,-1.9969813039800497,1.9281624866400584,-0.9056437969491711,-0.1968291452606003,-0.31312389557762604,0.05422397910704819,-0.007143566440256212,-1.017602495543672,-0.7104534260318649,-1.0591799727600553,-0.540359260732017,-0.9835008706106521,-0.7979469906451689,-1.048684128390255,-0.5468908192056234,-0.9158919682253162,-0.4275865506981818,-0.6154438849246056,-0.46081323716243694,undefined,1486739707806
903d185fccf839df,-0.46716818649956265,-0.697851252065986,1.0746438987523337,1.0945070449151464,-1.0796496741927875,-1.999373432791339,1.9342741488420492,-0.8568915957024483,-0.15696398296120165,-0.18657279482944136,0.06692206886241409,-0.03771112951163055,-0.9001016599821747,-0.6882334130443989,-1.0465483821015584,-0.5080294928122002,-0.9722286477277703,-0.7842868317863609,-1.050440327724555,-0.4944283150989443,-0.8978075340320463,-0.42974628322495545,-0.6371267147142469,-0.4601769163678772,undefined,1486739709298
903d185fccf839df,-0.35074300043862,-0.805862070176306,0.9387477229654627,0.9375735145843148,-0.9525081721280243,-2.0110336041102634,1.9714911620277857,-0.5949108806453007,-0.1401114204936428,-0.35380461470702634,0.16528429924973248,0.003968344446661952,-0.9218610739750446,-0.675271714519008,-1.0486536570276195,-0.4716585763307552,-0.9626174185857886,-0.7832988925117845,-1.0362997731446535,-0.47045293281968964,-0.889756217542837,-0.425750307755942,-0.6266774743395991,-0.4598574408862976,undefined,1486739710795
903d185fccf839df,-0.3590590802279145,-0.8451921481204198,0.8991907985138117,0.9202309482690864,-0.9527036011899683,-2.0134723181770573,1.9679672295765875,-0.6307029098326657,-0.18356720185086467,-0.2935280775222052,0.23739550207121599,-0.05086643401715812,-0.8000083556149733,-0.6808267485239642,-1.0465483894637921,-0.5100501094900965,-0.9669722802440152,-0.7524827885277652,-1.037069422023001,-0.43757725094374245,-0.8715164893193058,-0.4166127117695193,-0.6207556487697281,-0.45589125415116116,undefined,1486739712304
903d185fccf839df,-0.33272479305640545,-0.842844073513938,0.9221591877287997,0.9362786325245607,-0.9728635685856792,-2.0172130763908376,1.9889609679109823,-0.4929452138960622,-0.16981874284890713,-0.3661160976830829,0.2250074429991032,-0.014868439412516987,-0.7477857620320856,-0.6724942007542237,-1.047601015883472,-0.5060088761343038,-0.9759715912210413,-0.7475810902986372,-1.0313600242803447,-0.43428198364516174,-0.8666510350038444,-0.4167536944097083,-0.6216447015265396,-0.45630418119992866,undefined,1486739713906
903d185fccf839df,-0.44083393383346337,-0.836386923148599,0.8379420147441263,0.8697228762215218,-0.9625675870744912,-2.033655176079079,1.9075868844375783,-1.0509351528963724,-0.1978488727972112,-0.5240280348511659,0.23726532727555294,-0.11747442402183379,-0.6520443404634582,-0.6771234097883595,-1.051811543648893,-0.49590587753898646,-0.9870225854892362,-0.7323186962077591,-1.0290230898451433,-0.45614777698662723,-0.860172830529311,-0.4216890770848002,-0.6349310086506209,-0.46345083284037486,undefined,1486739715282
903d185fccf839df,-0.5475571303231249,-0.7888386206167896,1.2577533828661347,1.3106699645619282,-0.9713104332001382,-2.0201479186081017,1.9039866793057598,-1.0569128803375658,-0.1761824556545773,-0.5116479166511668,0.19398930938469863,-0.06193956911981271,-0.8043602384135473,-0.6697167258417629,-1.037074678064335,-0.5363180132438634,-0.9814901325885643,-0.712933555450699,-1.0257275920139841,-0.4728242930010863,-0.8513718481343423,-0.43097855104967114,-0.6317005736567021,-0.47063479295692595,undefined,1486739716791
903d185fccf839df,-0.34519891274034725,-0.7817944406393329,1.4663827911671345,1.406816795554235,-0.8405277882021471,-2.019355977221479,1.8503018179752804,-1.3808695518954694,-0.16613052270084253,-0.14347617375148153,0.1571837625517243,0.000605085429366625,-0.8000083556149733,-0.7197117534447147,-1.0402325683667253,-0.5524828618728699,-0.9869269620878037,-0.7068792614224557,-1.0138889876436228,-0.5176183707774091,-0.8534526844788836,-0.4262625104823094,-0.6309180961233493,-0.47119912132034997,undefined,1486739718285
903d185fccf839df,0.20920699313791916,-0.6937421032371478,1.546772407556542,1.5394936680436193,-0.8014009946432854,-1.9860548436476286,1.8794032602910096,-1.132675770612949,-0.1704408308986963,-0.022562755592579847,0.07517433485635816,0.014592263068555733,-0.7173225824420678,-0.7178600905522997,-1.0297062599965234,-0.5201531504824962,-1.0079918092484956,-0.7079748609444044,-1.0008679222167518,-0.49747720652995747,-0.8449733979057032,-0.41823626303777933,-0.6224738625696675,-0.46827350101240317,undefined,1486739719786
903d185fccf839df,0.08307964497864677,-0.6861109082615697,1.4734007830254616,1.4825167304330942,-0.7534079295130751,-1.9533569825333275,1.90568028583037,-0.9155605128824323,-0.13156648321190245,0.07440121504385025,0.018906468634309403,0.01808871219226715,-0.8304715352049912,-0.720637578415535,-0.9844430184175845,-0.4777203557026405,-1.0098547032668541,-0.7088994711697736,-0.9801293751697725,-0.5263492916071216,-0.8431166445883351,-0.42276380658066914,-0.6185290290407697,-0.47673422000766363,undefined,1486739721296
903d185fccf839df,-0.336882798445643,-0.7043084316593174,1.697342959077019,1.6182809545372223,-0.8121804097928125,-1.9557048555167889,1.8854965143925166,-1.0724509815213,-0.1607943111852016,-0.01913209007593938,-0.015998627327143505,0.01600845140170362,-0.847879066399287,-0.71230508892428,-1.0054956793313912,-0.4959058210095434,-0.9925434439986889,-0.7180442420946143,-0.9772956667035475,-0.5345720617177602,-0.8452433191550447,-0.41723395505531813,-0.6138723701433004,-0.48949544756336333,undefined,1486739722796
903d185fccf839df,-0.4158856599601701,-0.6861109082615697,1.783474545701699,1.6881218838863283,-0.8915139914366211,-1.9636382448953393,1.8562109905481798,-1.2903606813025434,-0.15270907516695062,-0.13510868448784982,-0.019524456793981248,0.0027821771036356385,-0.9218610739750446,-0.7428575719768392,-1.0086535769960154,-0.3989167151031437,-0.9568330252029479,-0.7293738780732452,-0.9777574563437494,-0.5075785868638822,-0.8489252055556934,-0.4191443980142105,-0.6063721114690569,-0.4868569778869773,undefined,1486739724291
903d185fccf839df,-0.2856002719062504,-0.7360072561718685,1.7668862646019854,1.6881037964895758,-0.8486123476187859,-1.9817108113180346,1.8250872440342116,-1.498668710287672,-0.16433003310247457,-0.21910500896882543,-0.03141363544233033,0.019448973511392666,-0.9218610739750446,-0.731747594622349,-0.990758813746833,-0.35850452286882367,-0.9998566891049682,-0.7139214952789421,-0.9742310637169577,-0.4786141119487035,-0.8369445462654906,-0.4159736281736899,-0.5783142207176398,-0.4955499144223623,undefined,1486739725784
903d185fccf839df,-0.11512053270948369,-0.768293095682541,1.3808893424224569,1.3153179429481514,-0.8364752234309547,-1.996100851221366,1.8564739803222408,-1.3098824369890505,-0.1884997050308212,-0.3085911424774994,0.03627960605698655,-0.007552750912904084,-0.9827874331550802,-0.7308217437499795,-0.9897061836460361,-0.4009373317810401,-0.9896660508571317,-0.7383286589547876,-0.9862026077080732,-0.5009264602081113,-0.8582765271980313,-0.4225825354129627,-0.5864224833528302,-0.4971534819217914,undefined,1486739727279
903d185fccf839df,-0.18303518432205557,-0.7448124665296931,1.216282553048376,1.185864746238019,-0.8714363082448605,-1.9660699700385234,1.9185189884349334,-0.8917210908207669,-0.1079533272653934,-0.299862341128031,0.0965097420740132,0.09999203151376106,-0.9479723707664884,-0.7298959446807084,-0.9381271909112515,-0.42518459059218905,-0.9937088184396343,-0.7136808418191047,-0.953044720663764,-0.4559783988927626,-0.8263480752613304,-0.4298347636501692,-0.5878502500310695,-0.48755418988583743,undefined,1486739728785
903d185fccf839df,-0.2107554502863706,-0.613320990038533,1.224576566529758,1.1775827835371893,-0.8083952726905019,-1.9449158195063314,1.9140825058016753,-0.862696700060358,-0.024120819270923157,-0.17067618999366588,0.07230974593037774,0.06156675687233245,-0.3996351381461676,-0.7104534260318649,-0.9149692624336174,-0.4292257815508995,-0.9830406691350538,-0.7068665942672044,-0.9363643237172774,-0.4159270412099865,-0.8067715957506248,-0.43665184665411605,-0.5948853721061368,-0.5171490464767718,undefined,1486739730298
903d185fccf839df,-0.11234847160764246,-0.6080378258274481,2.3844814925714006,2.511668702748745,-0.6981223128345839,-1.928955873529005,1.927189455168422,-0.704854998861197,-0.08638210409752978,-0.17158829975713233,0.021828617082817324,0.04594592478990522,-0.5214878565062389,-0.6382383530645107,-0.8812850329480152,-0.4332670149066923,-0.9526803893127055,-0.6932570994948722,-0.9334886343674413,-0.44543046193118224,-0.7955659515573038,-0.45208821995896314,-0.5711576963701039,-0.5138548599123183,undefined,1486739731793
903d185fccf839df,-0.22600173458838282,-0.6362146188072556,2.2683635248734055,2.2840472088349086,-0.8052786983997393,-1.9371501381964724,1.915660390498667,-0.8242158005981179,-0.20373536438524667,-0.02331119168984611,-0.0038953483639661167,0.029211342252145667,-0.7477857620320856,-0.6437933546925304,-0.8918113634049185,-0.4635761237515304,-0.9673322687517643,-0.6766331226683816,-0.9203976007400476,-0.41718971330578813,-0.7781545155534356,-0.47318553163486266,-0.6058633097332167,-0.5176676848505689,undefined,1486739733302
903d185fccf839df,-0.20659751390795256,-0.6092118704376871,1.6277999076890022,1.6895243219661173,-0.8172101041556311,-1.9370429915860194,1.9747810545409814,-0.4432328969985447,-0.19654263906418784,-0.36854625574608463,0.009234494893028532,-0.11491046127084073,-0.9218610739750446,-0.6206475296850187,-0.8865481908142331,-0.32213356399029636,-0.948468052834197,-0.6741822738804809,-0.9285139010878424,-0.2970202458641689,-0.7521151014523039,-0.4862226633639108,-0.6001181327156341,-0.5390692525467184,undefined,1486739734804
903d185fccf839df,-0.22184366018832583,-0.6139079904226582,0.6401581548967196,0.6967187820177041,-0.9530738784713184,-1.9341524049256733,2.002023220046543,-0.331683396205836,-0.21687595532262752,-0.394809192999866,0.08945644645189538,-0.09761129662653717,-0.7129706996434938,-0.6604583984289131,-0.948653514005921,-0.26555659378877366,-0.9431114318692537,-0.6807938665536948,-0.9624344404565387,-0.3022557152292484,-0.767982014608555,-0.49931375961044205,-0.6154148224331549,-0.5427776402900261,undefined,1486739736287
903d185fccf839df,0.02348103864995968,-0.7776853356524832,0.6312260035353353,0.6179922671993907,-0.7341016797828104,-1.9749327244597115,1.8926495860987642,-1.059237939503805,-0.2602792277781204,-0.4634352020766664,0.26384734740383664,-0.20602782381543872,0.11823891488413549,-0.7215634163371298,-1.0023377963912345,0.05774064730621063,-0.8741411108390889,-0.740462861167852,-1.0060455620146933,0.22863648694151809,-0.6976340917393642,-0.498965396201981,-0.6441793596584148,-0.6235824165528032,undefined,1486739737780
903d185fccf839df,-0.2689681123276614,-0.7788593656487259,0.5482845980367674,0.47718204729964353,-0.8635266086286444,-1.9756384851477726,1.8977619240320918,-1.0629341143638547,-0.2621393091356262,-0.5693413085248314,0.30576804166613775,-0.27237505470795065,0.2792585784313726,-0.7826684277699592,-1.0433904807558172,0.08400857932469906,-0.8737726543815109,-0.7879536046695977,-1.0406447923503976,0.2074174289415254,-0.7394309313774324,-0.49977584997707925,-0.6423917247593453,-0.578504226943208,undefined,1486739739295
903d185fccf839df,-0.5628032420980885,-0.7735762306656334,0.47682687887179476,0.48365382338338575,-1.037642888367911,-1.981419657266133,1.931841575924329,-0.8768478673377319,-0.23798506808034572,-0.6491168684135785,0.3478855955748633,-0.2837113361129429,-0.1124108734402852,-0.7835942980684903,-1.0465483784204415,0.04561706029771846,-0.8372126942785876,-0.8077883851253727,-1.0353272164389125,0.21145182198501009,-0.7467840475462708,-0.4989246317849565,-0.6215321050553709,-0.5793077144074578,undefined,1486739742072
903d185fccf839df,-0.7305110237092433,-0.8222985193516972,0.5125559925912305,0.5506591125635384,-1.1682815249150995,-2.0004518716659176,1.8595298014717796,-1.4062800448000767,-0.25016374371783584,-0.6925291284208309,0.29234221455402226,-0.29915898206652175,-0.36482007575757575,-0.7891492867457355,-1.0454957409574108,0.10825592293001263,-0.8057138366755316,-0.8151662646922442,-1.0384338005048594,0.19192659314565655,-0.7547541851010207,-0.49811690363838484,-0.6088913428398294,-0.5726922002041722,undefined,1486739742286
903d185fccf839df,-0.8122858428093823,-0.7630099606994485,0.9004665659999171,0.8529990006998148,-1.3513669338802778,-2.003757061047369,1.9054199180033597,-1.1445119469402765,-0.26825426615370523,-0.688856459429062,0.38462732954538303,-0.061927466678691125,0.42287071078431376,-0.8261826482002329,-1.0949694845339526,0.011266661567644493,-0.8517645138119018,-0.8220311767735536,-1.0666029607885088,0.05618929948488646,-0.793323216844836,-0.5071474477174938,-0.6206775789005434,-0.5509952967872184,undefined,1486739743794
903d185fccf839df,-0.5641892553963043,-0.7512696607370207,1.2462689341216913,1.2841074917986015,-1.2211911523214611,-1.9845804348698166,1.9120417725525165,-1.057203286311929,-0.2778166983966097,-0.533306694412565,0.4688801395273585,-0.3280455394660456,0.5273158979500892,-0.8317376757298016,-1.1012852798632011,-0.004898116399558153,-0.8579594944613043,-0.8416189723317868,-1.0642800197854319,0.01255010261304547,-0.8098592569280543,-0.5025047181843639,-0.6152289910606221,-0.54488258182823,undefined,1486739745294
903d185fccf839df,-0.4020255614834223,-0.6984382232221189,1.0988883095903768,1.1418395030737138,-0.9378304804075965,-1.9433039859838823,1.894503597016874,-1.0819043945525175,-0.2996850226322938,-0.5330139446709489,0.4491160502295719,-0.3397073476061987,1.8198250891265597,-0.831737662779027,-1.1076010862358001,-0.008939363887711695,-0.865592581675581,-0.8568307033604723,-1.0554570411781863,-0.02261994285527844,-0.8220567092823543,-0.49039041043909704,-0.6628950863512604,-0.498112021976899,undefined,1486739746778
903d185fccf839df,-0.3826213753084018,-0.708417522032171,1.0944223609781594,1.1292340709559971,-0.9423870430613427,-1.9477178945903015,1.9490589290551896,-0.7222832836523205,-0.32495754528154625,-0.709390790415556,0.40752997312030986,-0.47092197001365416,1.5151932932263816,-0.8030368167173338,-1.0991800307049582,0.3163785362822513,-0.8054587251399564,-0.8639109343973332,-1.0647278150698334,0.11136192927660965,-0.7925996816667907,-0.48933475456333103,-0.6733252591115244,-0.5172359980588905,undefined,1486739748297
903d185fccf839df,-0.5101347367658899,-0.7148747016255024,0.6344161846614472,0.6293754399772008,-1.0484737249647973,-1.9884516297078398,1.9641750508869662,-0.6760604967987035,-0.27080561632788197,-1.099755541892554,0.31719769410410215,-0.3104325220885575,-0.3343568961675579,-0.791000936687376,-1.0886536965669378,0.3103166862485621,-0.8162120967450097,-0.8569066978873212,-1.0687369880080224,0.1733868670765332,-0.7815867504942882,-0.4875209411413367,-0.6633954431233162,-0.5264680265801296,undefined,1486739749818
903d185fccf839df,-0.42558778755309007,-0.7606619007069629,0.6101717738234044,0.614210305667416,-1.0216589123694013,-2.013195138363567,1.9295483977792474,-0.9137433460729579,-0.2195328352123866,-1.0434368918841765,0.24658169291573734,-0.2547349287058485,0.03990502450980393,-0.8169243272627703,-1.0886536965669378,0.24767788014571104,-0.8351434143924309,-0.8784387058589339,-1.0676874668842369,0.1733714692772778,-0.789157440477547,-0.4816215554644568,-0.6575674887137901,-0.5409429324408347,undefined,1486739751283
903d185fccf839df,-0.051363886486149354,-0.7260279865898087,0.9891504500076561,0.9219096381457601,-0.6981325975293612,-1.982537692415072,1.9495717339217093,-0.6660950404027945,-0.22805805588881525,-0.9641723270542604,0.16087404585776305,-0.22188685378020495,0.3967594139928699,-0.7900751052411684,-1.1054958260342065,0.320419713108601,-0.861509822269138,-0.8611687673654995,-1.0805965830618132,0.2940336869866404,-0.7619821473483108,-0.47398230429942073,-0.6601488274482451,-0.5456196768601718,undefined,1486739752783
903d185fccf839df,-0.19273731191497556,-0.721918881602959,1.335590701872483,1.3585517686146518,-0.6642926551570302,-1.951116255899829,1.974518077860943,-0.4756253134046513,-0.21795055788192907,-0.6614250474499095,0.1649413724473712,-0.14205936007260941,-0.6215811608734403,-0.778965101985129,-1.0970747631411306,-0.23928867590264602,-0.9910486424191524,-0.8699905577918365,-1.079477093823144,-0.21651717289597286,-0.8854011096499609,-0.4719401605390724,-0.607847653181597,-0.5650621298262656,undefined,1486739754288
903d185fccf839df,-0.1858072454238968,-0.7407033469288473,1.515510004860172,1.4506943802140229,-0.6910663289993231,-1.8874255386302181,1.9927321176005903,-0.298559820090722,-0.1464815545391267,-0.29805958879862415,0.15341111115673237,0.09488332572840197,-0.6302849264705882,-0.8113692932578143,-1.0970747410544293,-0.2857626899059337,-1.0322358827902745,-0.8522899801360126,-1.0832903556775284,-0.2897983744786797,-0.8988134048142687,-0.46768498777699413,-0.6068446028528149,-0.5590715164330745,undefined,1486739755782
903d185fccf839df,-0.16501711496147997,-0.6960901778436295,1.7241394131611718,1.6609897198924228,-0.6265030079706687,-1.8297116488561267,1.9134171691916995,-0.7000520430320928,-0.04083558194923164,-0.07657595833285634,0.17887152952499263,0.1104049109504402,-0.499728442513369,-0.7928526384321147,-1.0928642316945927,-0.251412333572942,-1.0072304795106288,-0.8496301434925281,-1.0644199566513741,-0.21625539949839623,-0.8733050785605707,-0.4633744981958271,-0.6276272807167218,-0.554307130643259,undefined,1486739757297
903d185fccf839df,-0.07908415245046439,-0.7025473428229647,1.9499954945788367,1.9184211703014333,-0.5338391640652915,-1.824095853213768,1.9155867570492073,-0.634779064773995,-0.09465671366946285,-0.3583833395428641,0.18592010378744742,0.09147836331188909,-0.6563962232620321,-0.7835942786423286,-1.068653665753928,-0.17058801976610577,-0.9731293009856088,-0.8305933145436012,-1.0523714483584383,-0.14800948928045427,-0.8440384113776908,-0.4591149962532585,-0.6365734829030798,-0.538306405065364,undefined,1486739759837
903d185fccf839df,0.05813130209453402,-0.6344535738128915,1.826859280885565,1.9236682643430183,-0.4991660778582257,-1.7989493866522002,1.8707643407238672,-0.896220996546542,-0.07278095150525998,-0.1424598543327635,0.17517869039632492,0.056702918135451835,-0.6563962232620321,-0.7798909593328857,-1.039179964033747,-0.1867528966598338,-0.9687300908340757,-0.8265212319029915,-1.0448708671231086,-0.1266980415097585,-0.8356959367473733,-0.45626029425521947,-0.6344189032709331,-0.5385093488366609,undefined,1486739760288
903d185fccf839df,-0.030573548991274128,-0.5822092097520957,1.928303381123853,1.8767814710175255,-0.4839123865995125,-1.8003632340356504,1.8944352252693846,-0.7065895403168051,-0.13967785380286418,-0.32824071680849237,0.13809399052944654,0.02322044303025087,0.08342385249554368,-0.7548934390560225,-1.0339167951241783,-0.24332989512607803,-0.94758927919729,-0.7928616359420633,-1.0203330506323203,-0.19323472361004695,-0.8330657154178965,-0.44615833528135607,-0.6281356819093776,-0.503169685374252,undefined,1486739761781
903d185fccf839df,0.06644738188382854,-0.4695022132008199,2.570780903674364,2.3906618417582557,-0.5811739336581938,-1.8297815257567693,1.9443962759914062,-0.38229787120217085,-0.17111441494115576,-0.7556588931552499,0.06345075602438728,0.03439350259186344,0.04425690730837791,-0.632683351436491,-0.9918114659343312,-0.24535048353925287,-0.8412461258325772,-0.7204824242089536,-0.9934233153216261,-0.16451662271809941,-0.7807827554307721,-0.4391159051801465,-0.6467526101274248,-0.5170802223963273,undefined,1486739763293
903d185fccf839df,0.24247131229509722,-0.39436417652931294,2.894890395930306,2.8027749991204716,-0.5344665830244085,-1.8078517383045403,1.8787563165924526,-0.7622825763146545,-0.18280018690354627,-0.4085261543755885,0.15886437735235803,0.015192334158822833,-0.517135973707665,-0.6326833643872656,-0.9781272378128036,-0.0756194740081594,-0.8545418712777407,-0.6829027369588296,-0.9647293935187639,-0.09660947782879516,-0.7340639219443731,-0.4402678851349929,-0.7035757880424489,-0.5331292278609939,undefined,1486739764800
903d185fccf839df,0.16069642418413863,-0.3591432766420297,2.96634760682138,2.8138613147056715,-0.39941538053321823,-1.8108308361833716,1.9185715792665972,-0.4611764881737863,-0.15688416039335945,-0.2927140432662419,0.20463968707153601,0.06917564693507801,-0.7695451760249554,-0.6354608911028244,-0.9044429246144803,-0.08976369182690873,-0.8575748849738449,-0.6828140761681328,-0.943641005261191,-0.10139839197976147,-0.7271625324784093,-0.437220977776311,-0.7155538923242746,-0.5320524222791325,undefined,1486739766311
903d185fccf839df,0.16624051188241137,-0.42782411910620904,2.6403242091993304,2.743904803271312,-0.5510471306554632,-1.8453548200380867,1.9932580704369063,-0.08186060723210856,-0.13073418203972761,0.09412812903236559,0.05142812646916033,0.030248754973813713,-0.9088054255793226,-0.5975016917267323,-0.8528639245174618,-0.2413092501834601,-0.9249081886480404,-0.6514343407671022,-0.9307598764433453,-0.2045063822842266,-0.7303460346644343,-0.4453071287485922,-0.6888438788831569,-0.5428330174609651,undefined,1486739767793
903d185fccf839df,0.23554114228778925,-0.4818294989333767,2.5376043414749367,2.596619750293273,-0.44490901998474247,-1.873615479645494,2.0999992716413365,0.6194399969283463,-0.13908266324744195,0.2249833494046464,-0.00021909047491644272,0.00837128100736366,-0.7913045900178254,-0.5762075231362483,-0.8423375866983247,-0.19887654019776904,-0.9528148510063238,-0.6227017760003948,-0.9346081225662102,-0.1420964822711612,-0.7040507917742871,-0.4480866153618568,-0.7177957743019769,-0.5474915143369796,undefined,1486739769303
903d185fccf839df,0.07337751738572676,-0.6009936312359954,2.5510024414485386,2.586113670144837,-0.522010605929349,-1.913876379217663,2.0594318888429157,0.26015851395605666,-0.19484352716240627,-0.15853495728606415,-0.06654795333384637,0.060398129762247704,-0.6259330436720143,-0.6030566739285902,-0.8591797124844766,-0.28980381020284035,-0.9669365273859177,-0.6527959237407914,-0.9268416627561322,-0.20387504444583868,-0.7261042651661366,-0.45204573882287497,-0.6915576472874916,-0.5321334760442683,undefined,1486739770833
903d185fccf839df,0.04149914251594499,-0.6062767954470802,2.3647032844825246,2.391012250684161,-0.4748095444303923,-1.9024910584245374,2.05597895820455,0.26443594950672206,-0.19855102812678604,-0.3553666945949385,-0.06334301249120963,0.10728731073311074,-0.7216744652406417,-0.5604683043706858,-0.8581270823836797,-0.2837420166985942,-0.9690697736927202,-0.6522829547271095,-0.9274154014437658,-0.2058460463380136,-0.7256153279014681,-0.4752305504871624,-0.6699016761810541,-0.5115152528706799,undefined,1486739772299
903d185fccf839df,-0.2398618330651306,-0.5874923155071958,2.347476865502809,2.23451973378369,-0.5911099229108948,-1.8973760497997811,1.9577399252158705,-0.4087738534297105,-0.1871368148723024,-0.5043465544782102,-0.02586296520194145,-0.05181148655481995,-0.847879066399287,-0.5558391147627119,-0.8570744670073505,-0.36860757799358407,-0.9823233569409078,-0.6430495229617419,-0.9339154391580419,-0.20438319297055618,-0.7261035974899184,-0.48019698906845404,-0.6590357531477592,-0.5050380547103752,undefined,1486739774866
903d185fccf839df,-0.22184366018832583,-0.5211595622634944,2.2970736301867167,2.321697200592391,-0.6427441232283152,-1.9087776759293034,1.9255326850095753,-0.6391356861969791,-0.1759301152769241,-0.6233271099295422,-0.01989459798971253,-0.08971869446875348,-0.865286597593583,-0.5743558343422842,-0.9054955841642123,-0.3787105907212621,-0.9602471767324632,-0.6561333845992338,-0.9442497287678405,-0.24283311231345606,-0.7415433466406268,-0.47847298400871924,-0.6531195471624969,-0.5081189457908882,undefined,1486739775303
903d185fccf839df,-0.23431771086144812,-0.6133209754245368,1.898954629656641,1.8522034717324911,-0.7987267184966078,-1.972843400360535,1.9259744888489023,-0.7730196474807498,-0.16576853501399902,-0.6078876483903705,0.07418857379132077,0.014175075623343213,-0.7086188168449198,-0.6419417177016644,-0.9286534684684437,-0.3605251112819985,-0.9327021973887227,-0.7157833821097985,-0.9481539494327724,-0.31810071290101527,-0.7889462317851211,-0.45479923397916255,-0.6367255866924927,-0.4867467114678461,undefined,1486739776794
903d185fccf839df,-0.3992535348869908,-0.8410830285195738,1.5065775993618382,1.4544633073260003,-0.983324123672114,-2.0307902120739687,1.9979890921056143,-0.46586650870775353,-0.22920581469016296,-0.637943191618564,0.13379645184446506,-0.025761968522795546,-0.7608414104278075,-0.6706425508125832,-0.9739167321340839,-0.49388527499345086,-0.9092211895861394,-0.7519508229696941,-0.971446333073679,-0.39735651196307215,-0.8324454399896051,-0.4499006984497043,-0.6124468663412326,-0.4713781920990796,undefined,1486739778289
903d185fccf839df,-0.21491349018101785,-0.773576274507622,1.2883776476825026,1.302078558118899,-0.7746478991708864,-1.9956140417818853,1.9418611470237341,-0.7769352553716347,-0.22833951054947327,-0.43646781947025304,0.14356140853579835,-0.024407331479100847,-0.865286597593583,-0.7104534130810904,-0.9791798752758342,-0.5201531928795785,-0.9104356717027751,-0.7814370087039477,-0.9808220600215672,-0.46858972203806076,-0.8662590827453279,-0.4330689597809832,-0.6149061471361954,-0.45720051841058096,undefined,1486739779789
903d185fccf839df,-0.23570379317048334,-0.7536177061155102,1.3885457262977356,1.4662280452314338,-0.8682683080995907,-1.9920270134960159,1.968537891166829,-0.6119522416326165,-0.24029576204522404,-0.34062753143133606,0.1486701842778313,-0.06726727290896431,-0.852230949197861,-0.7808167972544805,-1.0044430565928282,-0.5524828760052307,-1.0021155012081147,-0.8384778328823703,-0.9840126060382486,-0.4985550967957605,-0.9054398496467452,-0.415363478849809,-0.6050749690702257,-0.47700866454593854,undefined,1486739781291
903d185fccf839df,-0.20521143159891733,-0.7741632310497587,1.3694054019519122,1.352047839804625,-0.8723928752326991,-1.9918173813511988,2.004387407598991,-0.3741039167737083,-0.21543819252583024,-0.2281594443895956,0.2555101689458435,-0.028608864238491016,-0.847879066399287,-0.7947042883737552,-0.9970746311627828,-0.5767301913458227,-1.0460050813809254,-0.8525053023028304,-0.9972015944306779,-0.5252714018528863,-0.9191379488047662,-0.428690561964863,-0.5829459869577598,-0.47294289860741306,undefined,1486739782780
903d185fccf839df,-0.364603202431597,-0.7941217848278743,1.234146601634195,1.2852294106644688,-0.9985160915301953,-2.0023618466417092,1.9764509765978309,-0.5960765650873874,-0.21840199340002134,-0.37930119506228127,0.16942518118351763,-0.045434590474602646,-0.8696384803921569,-0.7400801100151531,-1.0202325449159493,-0.5625859593947127,-1.0388989774879398,-0.8180984193866099,-0.9860836614705073,-0.5197895548836013,-0.901835916103786,-0.42028504401523964,-0.566228662350173,-0.4745995600350294,undefined,1486739784292
903d185fccf839df,-0.3368829019618722,-0.7589008703265949,1.4389487074768785,1.4196796182614708,-0.9555218776813373,-1.9754940716516756,1.9550206908884706,-0.6889244370709794,-0.20028425812484715,-0.3590057198139746,0.1240803285623057,0.008651067847316521,-0.843527183600713,-0.7613742656548624,-1.0044430639550619,-0.4393288508080207,-1.0297857426872747,-0.828516111763603,-0.9867833425337065,-0.4793224410450367,-0.8978322980666862,-0.422032052008497,-0.5513364999668818,-0.4822959668562516,undefined,1486739785790
903d185fccf839df,-0.3147065511687812,-0.7307241065747798,1.3719571910610726,1.3852747976809026,-0.8980248257928803,-1.965904594167765,1.9659712029863103,-0.608713050998362,-0.1464374818057756,-0.14399816021895906,0.14997637233367175,-0.02559494831233369,-0.8696384803921569,-0.7539675946590404,-1.036022047963538,-0.4534730827591308,-1.0087408014601402,-0.8217271952555723,-1.0199132416065788,-0.4538688116646867,-0.9018756780343147,-0.4239982135003879,-0.5476107433677059,-0.5015638612752672,undefined,1486739787281
903d185fccf839df,-0.2883723330080917,-0.7054824616555602,1.528908358970723,1.5799278845463316,-0.8658923139261843,-1.9623781266343192,1.9854054662954805,-0.4733691892814583,-0.1549168613446957,0.1402255070526104,0.18341075505570253,0.033383102501263626,-0.691211285650624,-0.8030367778650102,-0.9949693635989554,-0.4615555212059948,-0.9824698423921334,-0.8315939205028124,-1.0009169003700193,-0.447971207799186,-0.8962376233484599,-0.42762257655577346,-0.5439469506229163,-0.5090895976165795,undefined,1486739788813
903d185fccf839df,-0.3105484767687242,-0.8316907593216394,1.7770946917233739,1.7561578680806527,-0.8542489056708442,-2.002832353482432,1.9747757944102933,-0.5807844222236787,-0.1963242387714718,-0.06559939243308019,0.23556240700498243,-0.01417142894799622,-0.8261196524064172,-0.7243409106757523,-0.9844430405042859,-0.5322768364175138,-0.9644986850630147,-0.8100682449765771,-0.9973485271593523,-0.4751340641394306,-0.8876192523313942,-0.4279603415898251,-0.5613767809080414,-0.5067495325585651,undefined,1486739790292
903d185fccf839df,-0.2842142241026249,-0.8046880986360478,1.7152072617997876,1.801679284245964,-0.8490751980019583,-1.9727642044050557,1.9278021978041688,-0.8544040306977934,-0.15183576175512448,-0.127320045918728,0.2040504127456026,0.02742840113515827,-0.678155637254902,-0.7502642494480485,-0.9728640873088196,-0.4373082623948458,-0.9431961080167256,-0.8065091308015194,-0.9892392232554105,-0.43602201253085276,-0.8748047611224463,-0.4331192507542554,-0.5885080945137561,-0.5230298259127917,undefined,1486739791783
