UUID,iqrAccX,iqrAccY,iqrAccZ,iqrAccXYZ,meanAccX,meanAccY,meanAccZ,meanAccXYZ, covarianceAccXY, covarianceAccXZ, covarianceAccYZ,pressureDerivative, pressureIQR, iqrGyroX, iqrGyroY, iqrGyroZ, iqrGyroMagnitude, meanGyroX, meanGyroY, meanGyroZ, meanGyroMagnitude, covarianceGyroXY, covarianceGyroXZ, covarianceGyroYZ, class, timestamp 
903d185fccf839df,-0.7824865568977437,-0.8173088918676653,-0.7299713970774533,-0.7111326292936342,-1.3557736213508718,-1.7900254033798744,1.9170368972864833,-0.8834300122188931,-0.2640251046376266,-0.6643393581374935,0.08584094683419043,-0.6142292261258796,-0.23861547459893048,-0.7817426222253008,-0.9412850959381095,-0.9606456783952048,-0.9415036834360387,-0.8474706144379235,-0.8743725840417035,-0.8039216734759724,-0.9010898690002278,-0.4148909094448345,-0.7266611186063875,-0.3397120680719909,undefined,1491594218685
903d185fccf839df,-0.828918054146086,-0.6456068003212131,-0.40968946141677703,-0.40404156784658335,-1.440604280913188,-1.784457517679247,1.9541600516470197,-0.6022089739930883,-0.2730342304725725,-0.6603170864222417,0.01813904562129089,-1.0008616137743156,1.6588054255793228,-0.5919466900987126,-0.7928638615273674,-0.6353278135561438,-0.8932627451724324,-0.6659294753590891,-0.825862080776452,-0.6601049287416292,-0.7661502971192401,-0.4304100162502596,-0.7219763307281818,-0.49902309965517705,undefined,1491594220155
903d185fccf839df,-0.7672403933646655,-0.6582276520088153,0.12113604204795615,0.10329754216763538,-1.4042977692865284,-1.8004201529986916,1.9548209917919679,-0.6039736944547085,-0.3594933617321344,-0.375947209559377,-0.022184319299875417,-0.6032034915353798,2.9012679645721926,-0.7095276010610447,-0.9770746297987082,-0.46357616614861274,-0.9541497635474206,-0.704863735240019,-0.9426699746218042,-0.5272477587913335,-0.814578290777381,-0.43378532879756976,-0.6860741277320432,-0.553540838432164,undefined,1491594221673
903d185fccf839df,-0.7790215236522042,-0.6033417204564733,0.07360404598644943,0.028758086384332717,-1.3973471755901095,-1.8787566106698743,1.9596789545005802,-0.6495132672937285,-0.32024745509497815,-0.5091624422880644,-0.011970902937145986,-0.469486080915018,1.0974125445632799,-0.7169342526307049,-1.0412852205542236,-0.4393288508080207,-0.9852715406329344,-0.7019856248547356,-0.9824898480477485,-0.4855210151392254,-0.821533336644759,-0.45854893041650374,-0.5961692707806067,-0.5760229237259972,undefined,1491594223140
903d185fccf839df,-0.7914956433361461,-0.5904273758838066,0.4206824357312784,0.37537177796930377,-1.395255997415931,-1.9182413724636265,1.9420399715642183,-0.8063777070489306,-0.33957012128588415,-0.4548945533846424,-0.040163691547518574,-0.3202955669388112,-0.1820409982174688,-0.7132309397966493,-1.0381273228895993,-0.45549367117230566,-0.9650500508124235,-0.7328325494483628,-1.0016507543870463,-0.5058951451856003,-0.8506495054611053,-0.4466074711009831,-0.6091470137995919,-0.5396519507265913,undefined,1491594224650
903d185fccf839df,-0.8289180023879713,-0.6808277878924734,0.07168988648339238,0.013222071675895302,-1.3461417915986034,-1.9642158968003358,1.9345318748190956,-0.9185986056077861,-0.29223419582167776,-0.6129916508677528,-0.011731512175506073,-0.15962239218901242,0.910281584224599,-0.7585967713162399,-1.0560220861387817,-0.45751427371784126,-0.9884926595282353,-0.7694242616657865,-1.010428663311949,-0.49253488013148783,-0.8695783207042292,-0.4489764416092234,-0.618154487673984,-0.5413707840085837,undefined,1491594226161
903d185fccf839df,-0.8081277684093253,-0.6297574392139242,0.5259540925648322,0.5285870463179,-1.2985190150746933,-1.9353869039182827,1.9313235072607953,-0.8999523584840888,-0.29085313164079846,-0.596933055867435,0.021188049707451008,-0.2565737299337606,0.905929701426025,-0.7474867745355878,-1.0507589061858624,-0.47772039809972283,-0.9800978044359178,-0.7552692846925876,-1.0185558614098087,-0.47237774257955534,-0.8603494129669026,-0.42235740260374394,-0.6367455203193249,-0.540480893951856,undefined,1491594227652
903d185fccf839df,-0.7679333827610685,-0.629757424599928,0.4474786356784817,0.4899294938613333,-1.239201404450938,-1.913366275793616,1.9599173817952138,-0.6810594771831386,-0.2526502603505793,-0.626756633256939,0.07608343997354189,-0.19005139912636454,-0.8174158868092692,-0.7206375913663096,-1.0823378938754555,-0.4655967121647053,-1.0016386832208108,-0.751570845280474,-1.051377900094528,-0.48751441406284807,-0.8756410855830067,-0.4319039819384789,-0.6078766693515637,-0.5197512865085038,undefined,1491594229157
903d185fccf839df,-0.727738962607402,-0.6262353638391921,0.7307554359966674,0.7229653616880208,-1.261603653300905,-1.9042170244271983,1.950084535645663,-0.7385607037849709,-0.25215931532519664,-0.6351778677707017,0.06270043964146063,-0.0013226304200112025,-0.8696384803921569,-0.6678650305724115,-1.0633905152499439,-0.564606519543166,-0.92760293794462,-0.7375053774781831,-1.040029073195113,-0.5037597744798611,-0.8671862332572495,-0.42692613365466864,-0.6039773624363991,-0.5099282082177552,undefined,1491594230737
903d185fccf839df,-0.78040753695042,-0.6825888328868376,0.6242075034031093,0.6418715659210654,-1.315778420596778,-1.926470575263164,1.9467814962101933,-0.7921987627441466,-0.2877740328975624,-0.47341991374343606,0.04200907128370458,0.14328805849870882,-0.8348234180035651,-0.6752717404205572,-1.0549694449946343,-0.5868332182058615,-0.9130010793067456,-0.7515011831602461,-1.041519393599875,-0.5512177834664771,-0.8846499352561092,-0.4175115360085986,-0.6404679993157049,-0.48005217744168327,undefined,1491594232153
903d185fccf839df,-0.6875445252010306,-0.7770983498823542,0.6407962927767217,0.647374096214048,-1.348435507839693,-1.954365544505904,1.9302452805080477,-0.9413313856166828,-0.2941179163391863,-0.3693647715244378,0.04201263027900513,0.0733819463905677,-0.5606548016934046,-0.6484225248743426,-1.0612852440049996,-0.5908743950322113,-0.9220228843710663,-0.7444716161212742,-1.035110315350672,-0.5347722425316975,-0.8729186696324536,-0.4201917999568979,-0.6373699770468223,-0.50137116301121,undefined,1491594233681
903d185fccf839df,-0.8192159093004611,-0.730724121188776,0.5789091169900848,0.5935431315064651,-1.3734194640256332,-1.9809118837499706,1.9426974266202173,-0.8907443078180153,-0.31541840629601176,-0.24535240820525367,-0.00638786883613482,0.02646147122430684,-0.5780623328877006,-0.6428675556232593,-1.0033904485787326,-0.6353278206223241,-0.9172378184196278,-0.7001156783279876,-1.005891634236856,-0.5832465480561804,-0.850182729990661,-0.41426934631395534,-0.6049934543181531,-0.49771522069711716,undefined,1491594235160
903d185fccf839df,-0.7859515728905782,-0.7442254369175756,0.6886469765728054,0.6670269304634278,-1.4424262064389743,-2.010977702905418,1.9606327103352836,-0.8009800561949532,-0.3009360106186721,-0.3265658726504617,0.002930907445186802,0.0024271624882025566,-0.6868594028520499,-0.587317506966126,-1.016022031874996,-0.6131010795625461,-0.912184633434439,-0.6779377085897711,-1.0034147637676332,-0.5574849483937491,-0.8347919921256252,-0.4348565325791356,-0.5750244335970924,-0.49490102735760066,undefined,1491594236664
903d185fccf839df,-0.7429851606458898,-0.775924290658119,0.49596745735456754,0.4936847143207454,-1.3920571486157434,-2.0228591525339903,1.947870264174753,-0.8866381687195977,-0.3199333639529712,-0.4438779473260179,0.017798670531805692,-0.08811868194376644,-0.7477857620320856,-0.627128343333084,-1.0349694068193906,-0.5888538066190364,-0.9083207743959214,-0.6940550508134736,-1.0272738888509851,-0.533725146935506,-0.8462062844112039,-0.4389103100767445,-0.576007422977646,-0.5130261597581666,undefined,1491594238156
903d185fccf839df,-0.7097207379724826,-0.7729891937465179,0.4800173141348561,0.41858249419245863,-1.4077325527788582,-2.0374192266333924,1.9561988585530112,-0.8428002886092342,-0.30490915024187687,-0.5310866556003825,0.03626555081574159,-0.07223196829992612,-0.6563962232620321,-0.6206475037834696,-1.0297062489531728,-0.5706683695768551,-0.9253393340730995,-0.6819527954736609,-1.0253427691713637,-0.5335711624137316,-0.8397151810631925,-0.4444802809649961,-0.5832829062431774,-0.5140779530260468,undefined,1491594239652
903d185fccf839df,-0.6792284626644409,-0.7495085938216624,0.4825693573809659,0.494964801892369,-1.328460685093222,-2.0300169048217125,1.977003242657849,-0.6806473629441321,-0.3247622584538623,-0.3288230778254679,0.03496995988299023,0.0009745754499041897,-0.7782489416221035,-0.6530517339084784,-1.032864146617797,-0.5928950682395507,-0.9472495778005274,-0.6735933092104702,-1.0274558061601102,-0.5002797219857044,-0.8299073503613771,-0.45078339685687413,-0.5713711961702781,-0.5269937290877731,undefined,1491594241157
903d185fccf839df,-0.6917025823483827,-0.721918881602959,0.43727046269404257,0.35426959253334106,-1.2880378942316497,-1.9960402917958568,1.9874909062035218,-0.5782452663966481,-0.30066872498524244,-0.42063709909584385,-0.0009832362340506857,0.01742360650403149,-0.7347301136363636,-0.6984175719034562,-1.016022031874996,-0.5827920413795119,-0.9446831387973615,-0.6708321453574141,-1.023586568980675,-0.5593173616382947,-0.8375099946847084,-0.44756841999049196,-0.5740481954399309,-0.5286305418565873,undefined,1491594242632
903d185fccf839df,-0.7651613906700467,-0.7407033907708358,0.419406668245173,0.3882776521210465,-1.2025946075707366,-1.9947452344989787,2.0014946227414585,-0.4770503636564722,-0.30793848554622216,-0.5499854948204537,-0.003679622746189506,0.05761817198881545,-0.5824142156862745,-0.693788401721644,-1.051811543648893,-0.5928950823719115,-0.9803506529238049,-0.6961575871011578,-1.0436184378293738,-0.5581162823953788,-0.856323572721258,-0.44795484884232306,-0.5995819473268819,-0.5391034617913026,undefined,1491594244210
903d185fccf839df,-0.7679334172664782,-0.7465735261380535,0.30137377863327264,0.35048912193750464,-1.1519684077196475,-1.9986280757795376,1.9341163585391874,-0.9250536945823661,-0.30476916302190843,-0.5226190469880545,0.06046031241961926,-0.026490417534499,-0.7477857620320856,-0.7215634292879043,-1.0370746854265687,-0.548441699178881,-1.0232991694481208,-0.707493557202776,-1.0331791953774312,-0.5457821271351848,-0.8583763507023787,-0.4529555973774299,-0.6155134591502047,-0.5384976104666997,undefined,1491594245644
903d185fccf839df,-0.7000186966430869,-0.8217115481955642,0.5731671467548125,0.5292922157870827,-1.191239195727665,-2.024140233242609,1.99362361730844,-0.5560745224542083,-0.2926780323429029,-0.4676555059466479,0.11776541740506738,-0.05257523073891698,-0.4475058489304813,-0.7011950791928533,-1.0391799456281623,-0.5686477105018765,-0.9955376895204451,-0.710755022449183,-1.0025051768182827,-0.4688976911758458,-0.8382016148771738,-0.4570331575704582,-0.6079576498670827,-0.5380517240291303,undefined,1491594247182
903d185fccf839df,-0.6099277287428339,-0.7806203960290939,0.4417366654432094,0.4446900335653203,-1.106968481357874,-2.006200432590051,2.0395400350172226,-0.22794392654984022,-0.2764329694084223,-0.2604768140419504,0.19592762802243577,-0.042030043321364,-0.6999150512477719,-0.7271184438666985,-1.0539168185749543,-0.26757718220194854,-0.9091353924028339,-0.71707530115277,-0.9986009559209027,-0.17183088313386474,-0.786187195803591,-0.4446565165700622,-0.5276556938299952,-0.5475014513218479,undefined,1491594248642
903d185fccf839df,-0.5212227741407964,-0.8428440881279342,0.7211856550291798,0.7838322052901087,-1.024744621749012,-2.0243195847724693,2.059079504082722,-0.09492922556398053,-0.25540168688383785,-0.09749414554438175,0.2085347215917493,0.01583348334472689,-0.5475991532976827,-0.6280541877300662,-1.0065483536055908,-0.15240249792975982,-0.877707204554227,-0.7003373312902563,-0.9686336149789136,-0.13099420559491598,-0.760852777740158,-0.4429622826670011,-0.5096127396211675,-0.5496148289264524,undefined,1491594250146
903d185fccf839df,-0.46855416529236865,-0.850475268489516,0.7007693090603015,0.7838322052901087,-0.9483836086318631,-2.02850289871716,2.0282213609096904,-0.29098229554363003,-0.1908247470085748,0.2157586127512816,0.24598458121358646,0.07313913074957107,-0.4866727941176471,-0.6169442103755758,-1.0023377890290006,-0.0008569537055692197,-0.896899571251214,-0.6987857602775419,-0.9630081795723665,0.05086143445261265,-0.725906873569532,-0.4654139817995714,-0.47397820565525833,-0.5714874702295597,undefined,1491594251650
903d185fccf839df,-0.3909373515814671,-0.8657376876686644,0.8015747631446885,0.8246818385418029,-0.80456899465252,-2.036450263575414,1.9415508459278508,-0.8460767403779316,-0.19543817588054524,0.26024944350225415,0.22592450159504207,0.011151386625390948,-0.7216744652406417,-0.5984275231729399,-0.9665482993418049,0.035514033437679594,-0.8566881794607181,-0.6739922858137724,-0.9625393930234151,0.12559009017651657,-0.702601045339894,-0.4590118708618241,-0.4606328731380503,-0.5798659282465236,undefined,1491594253118
903d185fccf839df,-0.45192200571377966,-0.8663246880527897,0.47044702489346973,0.5062704428786037,-0.7263154097193654,-2.048310749617932,1.9427500300221423,-0.8264441077880736,-0.2099870633085033,-0.06036626604375331,0.22310872259864523,-0.007311917698645262,-0.5432472704991087,-0.6150925215816117,-0.8697060503036137,-0.19685592351987266,-0.8778869542633044,-0.6807242032154003,-0.9068237879634979,-0.14514537545227463,-0.7399680532031706,-0.4530963058211975,-0.5076167907765877,-0.5097467911744744,undefined,1491594254617
903d185fccf839df,-0.4228157264512489,-0.7888386790727742,0.6714208117300391,0.7140981579194022,-0.8218901021596584,-2.0386257724164123,1.938537077540729,-0.8711430409172529,-0.25559450404458556,-0.036933505598879465,0.2570976023059945,-0.045233895315660515,-0.6650999888591801,-0.6974917210310868,-0.8823376556865782,-0.2655565796564129,-0.9427153140971332,-0.6977598225104013,-0.9036402384824256,-0.15293698944043713,-0.7546322416145851,-0.42899469704579396,-0.5774579544508607,-0.4715899082091925,undefined,1491594256152
903d185fccf839df,-0.1941233942240108,-0.7389423019344831,0.6605742467286484,0.7251905336027791,-0.6964765952428489,-2.0059861423763343,1.9170226286928358,-0.966949205174693,-0.21865253302221963,0.33342744447685707,0.25459014422072024,-0.04997916210521055,-0.678155637254902,-0.7261926059451038,-0.8907587259418879,-0.22716503236471078,-0.9472845864415567,-0.7027375170381112,-0.906089122540062,-0.14117257833108202,-0.7562000939446415,-0.42646710004624394,-0.5571186841398881,-0.4163684049926833,undefined,1491594257696
903d185fccf839df,-0.036117602184137135,-0.7389423019344831,0.5023475654698419,0.5125321950525271,-0.5682550946049466,-2.0083083942801854,1.9070635614047262,-0.9917525759579569,-0.25360502088165265,0.4550643761522258,0.2127530411312128,-0.05055873600657567,-0.6259330436720143,-0.6919367323538417,-0.9191797975612723,-0.14634073269023526,-0.9241041518859807,-0.6693945694514358,-0.9040880339197533,-0.005389083397094715,-0.7165317552888126,-0.4045608885208271,-0.5257573229551221,-0.43608071524930636,undefined,1491594259149
903d185fccf839df,-0.10680434940395997,-0.8152543393742405,0.3453969058340905,0.43553863347406235,-0.5093386226887863,-2.01324172347365,1.8886601695305651,-1.1069847522405627,-0.23712726248155694,0.40834547986310515,0.20504403403516422,-0.05532370791154694,-0.9914911987522282,-0.6956400840402209,-0.9581272143620275,-0.09986674695166912,-0.9789893962015305,-0.6353803295249034,-0.9524569882136849,0.04256167383791819,-0.709879028649234,-0.4230362723439913,-0.5101936311411075,-0.4318578260598157,undefined,1491594260624
903d185fccf839df,-0.23015967096680087,-0.8322778181617492,0.3217906328760497,0.3391690721290135,-0.5727602309520679,-2.0300681481017206,1.8893360305920053,-1.1307662680609294,-0.2340405912246705,0.31399378822371227,0.20296670640898523,0.02174733584893594,-0.9914911987522282,-0.7123050759735055,-0.9833904251279566,-0.08370187005794111,-0.9947428159853479,-0.6601421391595527,-0.934097355990036,0.01823212914427302,-0.7211001157489161,-0.41219456879875654,-0.5078274982755321,-0.44559278735116353,undefined,1491594263161
903d185fccf839df,-0.2523358837382529,-0.8528233430959978,0.3205146112529948,0.3315527420275742,-0.5600882553694999,-2.0320899275235567,1.8634534808098002,-1.303374061632734,-0.2504719593738749,0.3413991915572127,0.18665284114510183,0.03547399545631296,-0.9349167223707665,-0.7206376043170841,-0.9676009368048355,0.01934912827923004,-0.9452835083403593,-0.6264825436083378,-0.9268416628723564,0.04414771281691084,-0.7017587871959496,-0.3785070556190206,-0.45080291164199626,-0.4101542088609131,undefined,1491594263642
903d185fccf839df,-0.4047975535744441,-0.8446051331222983,0.4417369195801588,0.422690833899547,-0.6160938744136149,-2.038395177414914,1.889220320287126,-1.149568871204944,-0.24326783018790668,0.2512787455863079,0.16130012612151604,0.021350395174207355,-0.45620961452762926,-0.6919367453046162,-0.9697061822819615,-0.019042390747750555,-0.9334223609448042,-0.622986758787004,-0.933705534568708,0.02508443849870451,-0.7043727811567062,-0.3904499128369205,-0.4004504856756653,-0.40767628999870387,undefined,1491594265154
903d185fccf839df,-0.4325178195387591,-0.8663246880527897,0.44684075193542894,0.4445503645826118,-0.6464778236372958,-2.0391102536015544,1.8642845081320087,-1.3230445978083103,-0.29118107116927505,0.30156821375429876,0.08531293169429088,0.08695212026405683,-0.7521376448306596,-0.7021209235898354,-0.9918114512098636,-0.14634073269023526,-0.9615927881070084,-0.6410229813503965,-0.9372879014867671,0.002695097742819129,-0.7156470706568123,-0.4087695346995392,-0.4506912600877962,-0.46568038382083926,undefined,1491594266649
903d185fccf839df,-0.10403239181834795,-0.8557584327006009,0.3785734680335176,0.44803863307832303,-0.5847019261339695,-2.0221976476846293,1.9268370772171204,-0.8771210635237163,-0.3015411378137348,0.3071414171587835,0.06897303991608272,-0.040820364136100726,-0.8391753008021391,-0.7048983985022962,-0.977074637160942,-0.24332988099371725,-0.9254699674590183,-0.6291930426717616,-0.9234622036226473,-0.0955931819505812,-0.7214201089152391,-0.4179996736938161,-0.5245791796935372,-0.45647329874764087,undefined,1491594268141
903d185fccf839df,-0.07353999574137218,-0.8416700581316914,0.4525827221707012,0.4907958309269603,-0.6591086603307253,-2.0225866316533208,1.94779662339264,-0.7565599283358438,-0.26359951846484975,0.30788084920071124,0.1306556545112251,-0.021484235651884825,-0.8913978943850268,-0.6984175978050053,-0.9707588271072259,-0.23120626572050354,-0.9770752631568362,-0.6231830782305134,-0.9018420582828655,-0.023328275357575826,-0.7001380126919411,-0.4068177944709752,-0.535667995898254,-0.4801204602354502,undefined,1491594269645
903d185fccf839df,-0.13868272427374176,-0.8334518335439959,0.4729990681395795,0.5389821361910342,-0.5598619748459068,-2.036855550451375,1.9553862414263312,-0.6854008281667267,-0.24905706526986346,0.3480744074242132,0.14663004244828337,0.01471461804613334,-0.8609347147950089,-0.686381730725822,-0.9981272612635796,-0.24332988099371725,-0.9767711422548052,-0.6079586806002433,-0.9205865148906344,-0.0010467261430303235,-0.6926983148052894,-0.42272424771315414,-0.5075448307129422,-0.5107486292301286,undefined,1491594271147
903d185fccf839df,-0.20659744489713308,-0.8170153697546084,0.6618505224886526,0.6634091979127011,-0.5699830996894885,-2.032113219423296,1.947360074970153,-0.7350993660945228,-0.3055608748507519,0.1639613641302065,0.17004420432595727,-0.021193251123648508,-0.7216744652406417,-0.7011950727174661,-0.9654956397920729,-0.1604849929060669,-0.9711392354682791,-0.616932461619471,-0.8986515122600671,-0.07822373333320036,-0.7016370375837163,-0.42231528868707346,-0.5902613592650983,-0.5320575117091483,undefined,1491594272653
903d185fccf839df,-0.24540581724717414,-0.8064491144024196,0.6388823874106141,0.5659051812148633,-0.4955455057429247,-2.0464962712642203,1.9757435662750018,-0.5392484251751177,-0.2734358055068751,0.3542968570478077,0.18197361141807716,-0.0019277416913495331,-0.8391753008021391,-0.671568388734178,-0.9097060824806982,0.011266703964726796,-0.978281107119053,-0.6380021655054507,-0.8853645678853069,-0.06293307491837997,-0.7030504073065268,-0.4106880336644788,-0.5390684511786533,-0.5032722040284471,undefined,1491594274225
903d185fccf839df,-0.17471913903817077,-0.76946714029278,0.5954976522267478,0.6098540059346702,-0.6488846798250998,-2.016663375694413,1.9448091540876766,-0.7566552866511526,-0.2734429184793131,0.23711587683365712,0.149448543337683,0.05024504997270671,-0.678155637254902,-0.72248924130795,-0.9139166102461193,-0.03722788431937497,-0.983674727290492,-0.6646828566258798,-0.8784167348071077,-0.09340659852389256,-0.7225762144236964,-0.39578328183937145,-0.5079620454639603,-0.49521097101708733,undefined,1491594275688
903d185fccf839df,-0.11789245578968599,-0.7612489010910881,0.5272298600509376,0.5319864814397591,-0.6483703919483886,-2.0369417328351944,1.8948586115805306,-1.1034494941289095,-0.2419925500592889,0.5299247389179512,0.1451935344516405,-0.08366056065228936,-0.8391753008021391,-0.7197117534447147,-0.919179804923506,-0.04126910354280697,-0.9682545065193273,-0.6818451346394019,-0.8988194349992941,-0.09163577696101177,-0.7336519322189549,-0.41084564292036657,-0.5155035830668948,-0.47378663288618644,undefined,1491594277145
903d185fccf839df,-0.08185611003607643,-0.7489216153585314,0.6669546089808722,0.7564695848858572,-0.646662968924702,-2.014527464417541,1.863471884720198,-1.2925566593991178,-0.2554281520781174,0.5694837111533347,0.13271334097193307,-0.022193122548304817,-0.9740836675579323,-0.7224892542587246,-0.9476008618184228,-0.16856741722057014,-0.9734284162310793,-0.716112693968493,-0.904074039606772,-0.207185710809132,-0.769932611433539,-0.40383707869670243,-0.6116385646190465,-0.4686046076993947,undefined,1491594278639
903d185fccf839df,0.23831316888422077,-0.6591081891199936,0.8181632983813514,0.8287703171460337,-0.43009761840991056,-2.0003587015825652,1.9327567538148083,-0.7617967622839646,-0.19003914636209027,0.7816074788398771,0.2337918732808271,0.03582873198786152,-1.0001949643493762,-0.7141567388659205,-0.9507587815697485,-0.06147518552760623,-0.9891659918898925,-0.7172209588794967,-0.9066208788759895,-0.10495543095274329,-0.7547631032275881,-0.39002939110292945,-0.5730377154466725,-0.45483533527612624,undefined,1491594280160
903d185fccf839df,0.28405167673616005,-0.6773056979037451,0.77605458482054,0.839314027714205,-0.3321160668970621,-1.9770639800148129,1.9650534000062154,-0.5052366612142326,-0.22425140309789765,0.7424298752046489,0.26499950906693925,0.04191601958945936,-0.9349167223707665,-0.7002692477466458,-0.9581272364487289,-0.14432008774761734,-0.9741438247421668,-0.6870381496064899,-0.9257431640296147,-0.14981110268586148,-0.754513253348085,-0.39855810572237316,-0.6150845522694894,-0.47151979199016814,undefined,1491594281645
903d185fccf839df,0.3769146022220252,-0.7365942857839861,0.7588284199777737,0.807510581530288,-0.3582931641855285,-1.9835509099694335,1.9982126248762633,-0.30321433443994955,-0.2819763956023488,0.8274364651236027,0.23335086279054723,-0.020793937380996053,-0.8913978943850268,-0.6632358733413739,-0.9633904016771806,-0.13219641594496057,-0.9818831128479655,-0.6979118140666718,-0.9425704941819063,-0.12825327972071338,-0.7570422248242981,-0.4128501205508873,-0.6086574391126088,-0.48045291711743543,undefined,1491594283153
903d185fccf839df,0.3422642697666314,-0.8111452636153831,0.716719452280013,0.8093066562013866,-0.46865869266810317,-1.9963780310747226,1.972953339038704,-0.5171770382527249,-0.3210651506111204,0.9592565212178394,0.16493375266674654,-0.02001927718576703,-0.8783422459893049,-0.693788401721644,-0.9276008383676468,-0.04328970608834259,-0.9487471413832153,-0.7079305313297259,-0.8997500124913816,-0.041483038890461926,-0.7314584229593432,-0.42649516002459725,-0.5957417057839974,-0.4751282127555367,undefined,1491594284666
903d185fccf839df,0.05951738440356924,-0.8093841601650342,0.8602722660791122,0.942871133098874,-0.5538139805641351,-1.994030158379839,1.9714596127663966,-0.5613164568318263,-0.2562668511258587,1.1660005568552687,0.21519725187920738,0.0012467951140027454,-0.9001016599821747,-0.6660133871061583,-0.8949692463450751,-0.07764004828897349,-0.9609364795712372,-0.6478182296006482,-0.8807536720622741,0.07158774598123334,-0.6831233161907181,-0.4205375949442243,-0.5205911427449302,-0.44687115341909545,undefined,1491594286138
903d185fccf839df,-0.22322956997031237,-0.7360072269438762,1.0382774095637441,1.0385662127772517,-0.7350993958344373,-1.987342913037941,2.0311456897910034,-0.1975316284156193,-0.22884985757921944,1.1414965006914881,0.2408046578264832,0.05207179218121927,-0.7303782308377896,-0.6734200645773676,-0.9212850798495673,-0.10188733536484398,-1.0162688135893636,-0.6506997183869748,-0.8473229096262228,0.07820907539609165,-0.672681298391903,-0.44161244651368803,-0.5087893509007014,-0.486268616379192,undefined,1491594287644
903d185fccf839df,-0.3840073541012078,-0.7500956453547741,0.8749461335388193,0.9035703291754763,-0.853323198254767,-1.9855004843903175,1.9568931182872393,-0.7146301525401207,-0.18644043616469783,0.8395981366755317,0.29144268473424917,-0.010635118016563782,-0.5214878565062389,-0.6660134000569328,-0.9086534744666027,-0.08370184179321957,-0.9224401671080682,-0.6857842254517131,-0.856691638937431,0.09851962541092422,-0.6876905010519863,-0.4309429812779097,-0.4747030122177202,-0.47570334172669587,undefined,1491594289152
903d185fccf839df,-0.4131136333637386,-0.689632998250298,0.8054030821508025,0.8796859081409576,-0.8983951217690996,-1.9858312366881505,2.0235586978944498,-0.27587619508407907,-0.2104203938222401,0.5958798505906459,0.2223661349639894,-0.10245554016422746,0.07036820409982177,-0.6826784049409919,-0.8897060811166235,-0.03318667922830373,-0.8488666863820498,-0.7188041936306082,-0.8885900995162223,-0.02630017308050359,-0.7325168242647055,-0.415563075778941,-0.4695966834561263,-0.4520870373767166,undefined,1491594290702
903d185fccf839df,-0.5558732101124195,-0.6849368928793231,0.7958327929094161,0.7974832630675529,-1.041849739566934,-1.9740662488963423,1.9893580698052755,-0.5129404956132299,-0.24852510961151958,0.36719354968166534,0.1296801699195586,-0.20125943953490388,0.5751866087344029,-0.6743458895481879,-0.8928639861434815,-0.06955763810683101,-0.8812212116647136,-0.7314637484791112,-0.8960277093496718,0.0668604231484493,-0.7193269417494407,-0.4221367804868279,-0.4931687030592508,-0.49254204694395276,undefined,1491594292150
903d185fccf839df,-0.6833865025590882,-0.7019603570528357,0.7390502118888976,0.7642900590874705,-1.1154541876462338,-1.9932498629881614,1.9495875179801,-0.8054794783909601,-0.2903364276803859,0.06799961608054444,0.1488493885934622,-0.20964558093678692,-0.32565313057041,-0.6771233838868104,-0.9212850651250997,0.055720143687200394,-0.7756871650153709,-0.7451239077365591,-0.9276043163712193,0.2966052277935018,-0.686638659762345,-0.42628066972423145,-0.45118390033788297,-0.5248811318309379,undefined,1491594293667
903d185fccf839df,-0.7596172684663642,-0.6814147736626025,0.6471764008919961,0.6608808967714792,-1.1592198257381865,-1.9908833557915067,1.9444620346957802,-0.8521164351674811,-0.3035793236850957,-0.18082736726757606,0.21088321271632227,-0.2515708137533574,-0.6476924576648841,-0.7363767648041611,-0.9802325127388648,0.08198793438208113,-0.7562248716708599,-0.819346007220343,-0.9749657282473028,0.18151724678374023,-0.748988072834481,-0.4641073036671779,-0.4421257757965523,-0.5166168373197113,undefined,1491594295167
903d185fccf839df,-0.40063944466897733,-0.7072435066499243,0.4774652708887463,0.48162272182027016,-1.0367171718294579,-1.9862900960892262,1.9634334473577402,-0.706839272054871,-0.2443224738002016,-0.06321242468430618,0.34317143434909436,-0.23959017216859432,0.5316677807486632,-0.7854459609609054,-0.9960220231486874,0.04763767697561484,-0.8371062813093377,-0.844329471854754,-1.0032958161414942,0.042577073077640776,-0.7962557468027522,-0.45960108753599954,-0.4529771452234991,-0.4883860794632671,undefined,1491594296639
903d185fccf839df,-0.2772841576115462,-0.6972641932258761,0.5374380330353767,0.610757963667416,-0.9804029816941421,-1.9762440879279137,1.9306608104057397,-0.9091576662924803,-0.2387161918485226,-0.15818807755439637,0.3883957069660094,-0.29920510008395546,0.46203765597147956,-0.7048984114530708,-0.9907588284713006,0.07188494991912457,-0.8342689233272049,-0.8142163245857053,-0.9806891207433687,-0.022696937021082428,-0.7836076397393329,-0.4821654917483577,-0.48322615301177885,-0.5035938147482765,undefined,1491594298154
903d185fccf839df,-0.1899652163077246,-0.6638043529469532,0.8302853767318982,0.8206618567830984,-0.850422629725407,-1.9640225695538387,1.9189213478411105,-0.946574383154573,-0.24666511133937244,-0.28646491356696074,0.4560496183212225,-0.38103331062511386,0.07472008689839574,-0.6919367453046162,-1.0044430934039972,-0.012980597243504468,-0.8489000056995378,-0.8033616587406255,-0.994129994174432,-0.051784602650011786,-0.789294299337839,-0.47914398499184396,-0.5009544447627923,-0.5044552820021284,undefined,1491594300807
903d185fccf839df,-0.1899652163077246,-0.6661523690974502,0.8985526606338096,0.9054804574701856,-0.8549791936594868,-1.9517754299429537,1.9251776560424938,-0.8981884735694478,-0.2572947647001268,-0.3000005062261979,0.4658028676952956,-0.3832914579153482,0.16610962566844922,-0.6863817177750474,-1.0033904338542652,0.005204868063398404,-0.8289220955186772,-0.8049385616110994,-0.9901488089201779,-0.03841875130259499,-0.7874751105387142,-0.47439103886733075,-0.5015943089030054,-0.5021805458609968,undefined,1491594301163
903d185fccf839df,-0.42558778755309007,-0.6591081891199936,1.2092645611900488,1.2539262503173456,-0.9578258788052534,-1.9502404620445195,1.8960709724514684,-1.108215077347914,-0.26958015614741765,-0.4943156494552544,0.3816826335274447,-0.2891306449492029,1.967789104278075,-0.6836042169610376,-1.034969425224975,-0.02106303569036848,-0.8442828259020665,-0.7845654811752862,-1.003204857850897,-0.06998556616373344,-0.795277254519154,-0.46756838471031775,-0.5464011334948018,-0.47072207501520974,undefined,1491594302654
903d185fccf839df,-0.4255878220584998,-0.6667394133235639,1.2552010854830755,1.2467649270235028,-0.8627140334472729,-1.92599308199546,1.9752701985089804,-0.5388235432104141,-0.16516184483979085,-0.14702098171185568,0.39548049765337434,-0.3150436883351779,0.9363928810160428,-0.6965659025356539,-1.020232589089352,0.07592616914255658,-0.868586056753876,-0.7639517490458322,-0.9921428996468902,0.12174047443969419,-0.7474118235863347,-0.47121988524646574,-0.5432727334091718,-0.4306271031912494,undefined,1491594304153
903d185fccf839df,-0.47964240969973365,-0.6673264137076892,1.1518433340156293,1.1645918177226966,-0.8370512204305789,-1.9349094100022979,1.9749546189507774,-0.5464821907849696,-0.1834351212516895,-0.09960947437067434,0.42382924626254553,-0.2261451809522462,-0.20815229500891266,-0.6845300743087942,-1.0465483710582077,0.0739055524646602,-0.9140067650492686,-0.7524257913149022,-0.9931994182666631,0.1992254522215788,-0.724954607057003,-0.48572231029869284,-0.5511628316947101,-0.4680678224254945,undefined,1491594305652
903d185fccf839df,-0.2176855512828591,-0.6685004583179281,1.2366988990172543,1.2709630379331647,-0.7639096281398597,-1.9307517168916772,1.975606811257283,-0.5241296617431971,-0.1549449367103678,0.10237173499842732,0.5072594745020563,-0.24600880666188996,-0.007965686274509793,-0.6882334195197861,-1.060232606541969,0.033493416759783214,-0.8993906904856139,-0.7376130354389124,-1.01891269795095,0.24474325635499794,-0.7198616605534536,-0.48126136444121087,-0.5617981344670706,-0.4540295483982901,undefined,1491594308633
903d185fccf839df,-0.2232296044757221,-0.6685004583179281,1.2111784665561565,1.2467649270235028,-0.7625519161707922,-1.931145358400587,1.9721486149887408,-0.5474187437596917,-0.15418167279064598,0.11178232166597235,0.5059454764707281,-0.2746353257173063,-0.0036138034759358177,-0.6882334195197861,-1.057074708877345,0.033493416759783214,-0.9007012957311228,-0.7371887282180638,-1.0172334632426745,0.2438809434100059,-0.7189670461598281,-0.481595788444337,-0.56220940668863,-0.45712648911791554,undefined,1491594308771
903d185fccf839df,-0.3853934019048333,-0.7847295594719284,1.1027163744595414,1.0835080127989676,-0.8968728363268124,-1.960661477630208,1.9705681099159815,-0.6116394006871625,-0.22723491877517063,-0.20160209616625752,0.3572090227280664,-0.22335585644686312,0.8275958110516934,-0.7437834228492086,-1.017074691424728,0.06178190892672494,-0.8719670350177504,-0.7655096536832339,-0.9772326963354508,0.36326509123777384,-0.6995613677346558,-0.4660569816191393,-0.5342293188161098,-0.4380480039227888,undefined,1491594310152
903d185fccf839df,-0.27728419211695593,-0.7700541699048975,0.923435463488804,0.9223695206240691,-0.8364340800086355,-1.998481334235682,1.9636175262675428,-0.6686544126649553,-0.19830591878218662,-0.06174277773693429,0.29640649344911857,-0.21103810202780904,0.723150623885918,-0.7428576173045501,-0.9697061822819615,0.03753462185085445,-0.8582874433100514,-0.7591957087482873,-0.9476501795451335,0.20851071763931225,-0.7138651131952618,-0.4452718724652853,-0.5281984507518951,-0.4106202144358706,undefined,1491594311645
903d185fccf839df,-0.2509500084616761,-0.7371812715541151,0.908761087755198,0.9608908274840275,-0.8606671822392696,-2.0003377390806034,2.001305275844554,-0.41715816343018236,-0.22105107868569965,0.2389047319029515,0.21901884712142616,-0.12087658823464136,-0.6041736296791445,-0.6910109138584087,-0.9612851193888856,-0.19685593765223341,-0.877852511296111,-0.7189181874362278,-0.9517013339052353,-0.1609749794711774,-0.7675000802387908,-0.42083232202228305,-0.5488701698900825,-0.49646117272766804,undefined,1491594313157
903d185fccf839df,-0.12898070019705096,-0.7260279719758126,0.9138649201104682,0.9908183053406285,-0.8348912246966684,-2.0064310289071385,1.9379348405010532,-0.8425981399624523,-0.2392209037181935,0.2196997002975252,0.22694454062880587,-0.055634628155481425,-0.517135973707665,-0.56880081976349,-0.8297060034020616,-0.04126910354280697,-0.7839698316604945,-0.6464249811389753,-0.8817402207932156,-0.04887429656836213,-0.6935418857887865,-0.3668037854348955,-0.5469166162653983,-0.4299225733311727,undefined,1491594314645
903d185fccf839df,-0.2828283143206384,-0.7113526116367741,1.0823000284906632,1.0567029079155514,-0.7149497145098623,-1.9912490481281981,1.9475941269546564,-0.7497017033522649,-0.23706657634973877,0.11090142678910281,0.2632402781958623,-0.03791270514796441,-0.865286597593583,-0.5854658764506472,-0.8539165693427262,0.011266689832366028,-0.7980558713376676,-0.6242343471301104,-0.8623800451096838,-0.029025699849606575,-0.6746224895206212,-0.37327757245926757,-0.5650668568238065,-0.42729275698108876,undefined,1491594316145
903d185fccf839df,-0.2052115006097368,-0.7084174928041787,0.8819643795340959,0.942754178555778,-0.6102618901043427,-1.9869166628192014,1.9409985683450928,-0.766397626273758,-0.1995956374490777,-0.007120594836399987,0.2460876259790098,-0.0158103469072733,-0.9610280191622104,-0.5984275166975526,-0.9012850416743237,0.02743156672609405,-0.7681975232961584,-0.5892005007578718,-0.885133673065206,-0.0243445735243824,-0.66343926782277,-0.4021471829417849,-0.562312574682764,-0.4800656020429613,undefined,1491594317658
903d185fccf839df,-0.08601414993072369,-0.6467808595454483,0.9763902337771072,1.0325262796231096,-0.5439294310355539,-1.9772014057130707,1.9284517702586683,-0.8173607570386002,-0.11775855776037267,0.2121620955912583,0.27429103796709425,0.04504854024017415,-0.8957497771836007,-0.5826882979319901,-0.8781271279211571,-0.06349575980842032,-0.7601420946954818,-0.5409371363336043,-0.8635625054994337,0.046288095226166115,-0.6255474833704779,-0.3938013466524589,-0.5204575390098642,-0.44669648838142306,undefined,1491594319145
903d185fccf839df,0.20643496654148766,-0.6626302791087219,0.9712861472848877,1.0249179044569203,-0.4885820924728258,-1.9616397586915488,1.955467759572334,-0.5639912789750857,-0.0662868616007538,0.3444786666173344,0.16142403962596527,0.08652381565715543,-0.47361714572192515,-0.5688008456650391,-0.8412849713219955,0.08198796264680266,-0.8077882513161405,-0.5341925511732286,-0.8335391900704314,0.20014936067153172,-0.5878051495502729,-0.40786753403329634,-0.5333804975853905,-0.3985256223778043,undefined,1491594320644
903d185fccf839df,0.14267825130733386,-0.7495086157426566,1.1327032638067553,1.2973909961668613,-0.36170802675920605,-1.9602515325141032,1.9433075399762612,-0.6138275094947502,-0.1495903397139399,0.71173255079903,0.10554151406933282,0.06135918752707678,-0.7434338792335116,-0.5623200190661991,-0.8897060884788572,0.00924601662502657,-0.8467799726721311,-0.491723829051075,-0.8369816224347977,0.2629442194917748,-0.5607145177884388,-0.3858606093882848,-0.43921397251952216,-0.3325799858163465,undefined,1491594322198
903d185fccf839df,0.6374855508569132,-0.7313111069589051,1.2928441045686188,1.3399310464178094,-0.12411870583831065,-1.9224689433628213,2.0004400689337323,-0.10809259906216029,-0.1812073572347072,0.8678197463193296,0.08545511254844677,0.06938334310284239,-0.7738970588235294,-0.47899490399048184,-0.8654955299004264,0.09613225112735584,-0.7914830220952529,-0.42351169307284275,-0.8208889572288113,0.36716089607788566,-0.5003545394767221,-0.39820986729282337,-0.47614070223962707,-0.37663575241409836,undefined,1491594323712
903d185fccf839df,0.6499596015300355,-0.6039287646825869,1.3457991289938716,1.5302491251335393,-0.13101012516268604,-1.936334903425543,2.010741021147334,-0.07647319114813923,-0.14284389908121714,1.3593880317988474,0.2969146951888936,0.05211100902526686,-0.49102467691622104,-0.37715321179371225,-0.8549692068057568,0.21534809809353347,-0.7397908075577785,-0.3274789383158439,-0.7950357404339,0.41512705346805806,-0.4421175809524208,-0.33888014903802177,-0.3693421415136654,-0.2803389030783495,undefined,1491594325162
903d185fccf839df,0.5016559715884916,-0.5786870466933864,1.0842144421306696,1.3071571578820596,-0.18280888695820227,-1.9453304252423274,2.0036274012068893,-0.1468398420938457,-0.11127404413481302,1.1657914990228206,0.33597725863190026,0.1090044830725855,-0.32565313057041,-0.3688207093516827,-0.8697060797525489,0.23757485328567218,-0.7214205283087229,-0.36034058348415415,-0.7992898015142074,0.4041787599404315,-0.46006353913968967,-0.3440389958896557,-0.3816340302330631,-0.28493094759016285,undefined,1491594326639
903d185fccf839df,0.22722506249849475,-0.5739909559364077,1.0127569771026463,1.116485184248866,-0.37492513663081917,-1.9604122488703546,1.9754463958648056,-0.41988182093045545,-0.08019065270762174,0.8079523272507003,0.3743197694379724,0.0663880556121295,-0.5867660984848485,-0.35585904320322825,-0.897074499184435,0.16281231885072123,-0.6934223270985601,-0.3744693817530388,-0.8133393981705355,0.4242429341280836,-0.46871117318909133,-0.3164142154880035,-0.36941277928545935,-0.2805149610242688,undefined,1491594329007
903d185fccf839df,0.20504878071622323,-0.6221262296243499,0.9387477229654627,1.0373249283526176,-0.38840968244947016,-1.9834554126442565,2.009018500402407,-0.22997947653331233,-0.12867078047476194,0.9338738685337683,0.3744562483025517,0.002778253161544366,-0.9262129567736186,-0.320677370542695,-0.9170745299974449,0.1385650035101292,-0.685102569212431,-0.3820245846065973,-0.8237366581117285,0.3514236885069912,-0.49073644120085796,-0.28745062019002093,-0.29043449604596255,-0.27117183128777606,undefined,1491594329649
903d185fccf839df,0.02902509184282269,-0.6755446456023828,0.6969414983280863,0.7522132521139412,-0.46945068968163345,-1.9994549573730913,1.9934158623110512,-0.3820781938267268,-0.11681660429695843,0.5232809467732438,0.33761382442504695,-0.1342420349013405,-0.6999150512477719,-0.39752158131492504,-0.9160218925344142,0.1365443585675113,-0.7421185136781837,-0.38510239568781635,-0.8201402963974402,0.2741696889011172,-0.5022287430835704,-0.29589955516491173,-0.3154249114729018,-0.29322080815006596,undefined,1491594331166
903d185fccf839df,-0.007011391932425808,-0.6344535445848991,0.589117289974524,0.6550550994059884,-0.4851569463326646,-1.9841006130832066,1.9406672120611512,-0.7177426688479226,-0.14898990720809413,0.5745676237269992,0.3054117364933644,-0.10834678083947476,-0.3822276069518717,-0.42714826529821315,-0.9265482377157852,0.10825595119473416,-0.736882985682132,-0.42365102471582106,-0.840577980754117,0.2086493064484894,-0.5408050670577983,-0.31850809866345936,-0.336887801968446,-0.26840024068658835,undefined,1491594333536
903d185fccf839df,-0.011169362816253596,-0.5945364808706562,0.592945608980638,0.6442010190676712,-0.3761285606536607,-1.9690840077056895,1.9581133502369361,-0.5633245837008836,-0.1629452239567654,0.5465863515023258,0.3011631276539429,-0.13915230287724492,-0.3822276069518717,-0.49565997362841363,-0.9202324423865367,0.01732853986605519,-0.8502974793241319,-0.4702551563961753,-0.8412986522377125,0.15689513500565547,-0.5752559316791347,-0.30857449813208354,-0.34658294374732174,-0.26294265290529995,undefined,1491594334159
903d185fccf839df,0.10664197456454376,-0.7254409569776912,0.6101715196864549,0.7060820911502025,-0.134219255132733,-1.9753589775560745,1.9784549067400437,-0.35187071011085835,-0.17330283632488022,0.8166914555436596,0.28511735524740317,-0.12871015101530237,-0.5258397393048129,-0.5789850109994836,-0.9012850416743237,-0.02308359583882179,-0.8256750221261854,-0.5276316253825066,-0.8201822780518011,0.21143642892448772,-0.5926671364700754,-0.2981147657276809,-0.25578205331698783,-0.2449024702239291,undefined,1491594337365
903d185fccf839df,0.1953468946611714,-0.7577268549443483,0.6771630361022608,0.7640713519612994,-0.15282608474627885,-1.984689909370828,1.9921693428019358,-0.2638331401148405,-0.24985873319878518,0.683975407879668,0.2179080532262801,-0.020517262095084924,-0.6563962232620321,-0.565097519880209,-0.8423376087850261,-0.010959952300886545,-0.8267999600491608,-0.5265296921694306,-0.7994577246510435,0.2138693808548607,-0.5807050247558608,-0.2907305773066709,-0.29090550674021065,-0.23017458229543294,undefined,1491594338645
903d185fccf839df,0.6859960162944645,-0.7718151856712693,0.800298995658583,0.84258455420302,-0.1655597773318124,-1.963573026073563,2.0277716524709066,0.0058477682331650035,-0.31857656940239076,0.8747710674099836,0.16276943678393438,-0.07246325728062292,-0.8391753008021391,-0.5530616268994766,-0.8286533953879661,0.06582308575307465,-0.7934369478609533,-0.5138321387120932,-0.8024663533096634,0.1791458843945249,-0.5776540813270032,-0.3553083861013129,-0.37823262417349973,-0.3118730182813167,undefined,1491594340169
903d185fccf839df,0.3464223096612786,-0.6972642224538684,0.8730322281727118,0.8622092762447275,-0.39441653544547944,-1.954575174586733,1.9834646776244405,-0.3478372897153075,-0.29381456037188536,0.7343508284638397,0.17533103277028195,-0.08805182024560623,-0.8609347147950089,-0.5632458440370194,-0.8128638628914422,0.14058559192330405,-0.7910967873678977,-0.5156750253166775,-0.7994787159522962,0.2687032415619618,-0.5588659819902136,-0.3565068032422341,-0.36348421988539903,-0.2719515647481101,undefined,1491594341707
903d185fccf839df,0.47116367902774503,-0.6778926836738741,0.89344857414159,0.8424412985237377,-0.22655395894545574,-1.9452582179200681,1.94603990629875,-0.5499206457649063,-0.2543709969567581,1.304776304955737,0.1439469744773669,-0.008419227343532157,-0.8870460115864528,-0.5141766543556623,-0.8076007197496918,0.05572005889303579,-0.7796180265079978,-0.5067519086773689,-0.7999195158633301,0.26152756637439933,-0.5588622598509783,-0.34671680108214215,-0.29371992262790014,-0.28290997416779723,undefined,1491594343147
903d185fccf839df,0.29513985213270555,-0.764771034921805,0.9432136715776801,1.0359232108493672,-0.15079980025913528,-1.9896861273150948,1.8948638795676322,-0.9185969568149088,-0.19118342371705327,1.3298274952822366,0.16960132245549597,-0.039765195002962536,-0.7303782308377896,-0.5410257986726169,-0.8854955459889686,0.01126660503820142,-0.7814950679519801,-0.5915120266008962,-0.85253553320328,0.22637291408775848,-0.612753902366812,-0.3746812029721684,-0.4568766471425853,-0.39361585635960594,undefined,1491594344645
903d185fccf839df,0.5210602267743316,-0.7489215715165428,0.9840463635154366,1.100106610139785,-0.10999643846110144,-1.9829662725090782,1.9642986427458222,-0.4422782033178746,-0.1955780842443325,1.3962199667027,0.1319938923808981,-0.05642440002348043,-0.5693585672905526,-0.5438032735850776,-0.9444429715160324,0.00924601662502657,-0.8404805106393072,-0.5921516533918663,-0.893068058410008,0.2272814246442197,-0.6283824194687476,-0.3941791410984501,-0.40490327215427085,-0.43634482510281336,undefined,1491594346144
903d185fccf839df,0.3131580940203298,-0.7248539419795698,1.028069236579305,1.0175514191468065,-0.2221002452360037,-1.9551737906436137,1.9614295235006582,-0.4585214235450469,-0.2593261551286956,0.9439910252412692,0.07534152054808355,-0.027128331259486597,-0.7086188168449198,-0.5345450109261006,-0.9539166939588403,0.08602911120843083,-0.8811529951975197,-0.5774908885738472,-0.9174169596491385,0.2112362427525513,-0.6310011329815155,-0.3749534828141825,-0.39561730661719147,-0.4189827195643109,undefined,1491594347640
903d185fccf839df,0.13990615570008288,-0.7289630615804157,1.0810240068676082,1.1127779841432959,-0.2790830083415135,-1.9434553882903325,1.9853134205554483,-0.30741680082067085,-0.2987171579382178,0.893623492164401,-0.004623590981083414,-0.0037439747842559347,-0.7826008244206774,-0.554913276841117,-0.9728640799465857,-0.25747414120954887,-0.9358060020565496,-0.5841088143125452,-0.9213071859705037,0.1440990217645007,-0.6520874399483979,-0.36487611515646157,-0.3897378998208286,-0.46783996270936695,undefined,1491594349155
903d185fccf839df,0.16485446407878587,-0.6902200570904079,1.0593318934126246,1.0590680402522774,-0.3125629542602648,-1.9503080099433303,1.983036011803453,-0.32048519599014996,-0.3393658405299785,1.0232176606434091,0.026155400740862707,0.06531820693364208,-0.852230949197861,-0.48732748413715865,-0.9612851267511194,0.05572008715775732,-0.8578108146766387,-0.5450218847840556,-0.8994071674187881,0.07628426686129604,-0.6311316463926726,-0.3547294324678118,-0.44021456186413654,-0.4866224808815386,undefined,1491594350641
903d185fccf839df,0.09000967696431579,-0.7113525970227779,1.1792779259797843,1.164555206866024,-0.4519958637538592,-1.9867303226103656,1.9607089667793156,-0.5384363462207155,-0.26311302629526173,1.0342291509640036,0.12083741581024612,0.022495713630687492,-0.9349167223707665,-0.5826883885874119,-0.9065481921783077,0.015307894923437267,-0.9471416216436175,-0.5560728719108178,-0.8708881672519474,0.05360235837478008,-0.6368594227381633,-0.36417273064433914,-0.42493492627550766,-0.43372682514171945,undefined,1491594352154
903d185fccf839df,-0.06245188935564617,-0.6726095486907816,1.109734620454818,1.1402338391139357,-0.5877464952760904,-1.9868863810965953,1.9818631267913194,-0.4456547752095758,-0.25453239136760325,0.7416354065831783,0.22542480289997668,-0.06341480913147489,-0.9697317847593583,-0.560468330272235,-0.9254955855282869,-0.053392761213102984,-0.9263753944069448,-0.5712846033824365,-0.8886390768498036,0.02509983719993475,-0.6547740556316726,-0.358394129636459,-0.41514909941989797,-0.41844854443829865,undefined,1491594353656
903d185fccf839df,-0.3091626014921474,-0.6913940432446622,0.9023807255029742,0.9737227481162757,-0.8237518165504619,-1.98088160289038,1.9173855405232976,-0.9439684398352681,-0.1580588666883407,0.40688312607579297,0.3132440956173752,-0.06149583837334665,-0.9784355503565063,-0.6086116820319971,-0.9339166557835966,-0.15846437622817053,-0.9175396232416467,-0.5966037120883795,-0.8782907935448467,-0.03390700325970798,-0.6744546993636327,-0.36946338138393314,-0.4372144813761264,-0.4201003324124446,undefined,1491594355229
903d185fccf839df,-0.22045761238470035,-0.6855239078774445,0.6644028198717119,0.7483711544333846,-0.8226821067631654,-1.972980823916431,1.9580002576890208,-0.6761723561903406,-0.1705345100562408,0.15967158080059127,0.3048497635924687,-0.0791759651322604,-0.38657948975044565,-0.6169442103755758,-0.9370745681726885,-0.10794919953089391,-0.8133376139480197,-0.5644956885630888,-0.8774231888860318,-0.061408626719077236,-0.6614994317702897,-0.34964349426691294,-0.4603195962421538,-0.43739167186848593,undefined,1491594356681
903d185fccf839df,-0.13452468437909448,-0.6820017886607238,0.7473439712333303,0.7873113375722274,-0.7516799382201258,-1.989252889747465,1.9648324965152693,-0.6218462108264061,-0.206537500035591,0.13933527618432945,0.23693589121522707,0.03720172433370774,-0.32565313057041,-0.6262025377884256,-0.960232481925855,-0.18069106075850538,-0.8863286898362019,-0.5949128195869321,-0.9170531259851503,-0.08887945266828763,-0.6966698431311892,-0.3995824701978364,-0.47872878653740925,-0.43436729401063745,undefined,1491594358491
903d185fccf839df,-0.17056103013270404,-0.7994049490389592,0.5368006575662229,0.5390526183957561,-0.5993487659166242,-2.021727142927375,1.991146340350642,-0.4377475956095819,-0.25004850458516736,-0.06654119347528109,0.10370119792013283,0.002242100072815931,-0.15157781862745098,-0.6039825312763468,-0.9991798987266103,-0.29990685119523997,-0.9080883633002597,-0.6237657102281433,-0.9549268629486338,-0.318839838497834,-0.7574194193299295,-0.4087141195858726,-0.507339409476519,-0.4696362114781131,undefined,1491594359635
903d185fccf839df,-0.18996528531854406,-0.7518566903491383,0.591031449477581,0.5053088426690289,-0.6998194517796533,-1.994693991962387,1.9650244768819631,-0.6142827330424158,-0.307176097205885,-0.08134387166977589,0.08191041143792203,0.13385294508303333,-0.17768911541889482,-0.5836142006074576,-0.9328640404072674,-0.3787106048536229,-0.9249469015403419,-0.6049315340041399,-0.9707676424186414,-0.4403181771006534,-0.7696845894925717,-0.39795842859622643,-0.585613379304426,-0.45645406230024566,undefined,1491594361118
903d185fccf839df,-0.10403239181834795,-0.6491289487659262,0.6420723143997766,0.5873028632982852,-0.6650949388658586,-1.932219138076871,1.9344819090770473,-0.7506693160793131,-0.36615169096538536,0.07501283321897009,0.022606382323718612,0.05228676944892636,-0.9349167223707665,-0.6558292217717137,-0.9928641033973618,-0.41104038690580047,-0.9906604937259733,-0.6982727911088333,-1.0020223963417247,-0.42464255888244434,-0.8222458892441488,-0.4424211483809901,-0.5934834799147596,-0.46278475329908464,undefined,1491594362617
903d185fccf839df,-0.23847581976691484,-0.5939494804865311,0.41493995722210725,0.47975464544441454,-0.37549085257061265,-1.9513678139700252,1.946350230440113,-0.616727457111653,-0.4331079985608463,0.14398688980385224,0.05144281999907485,0.0030639463125067064,-0.8783422459893049,-0.6595325605073183,-1.0286536298957267,-0.5019676569108718,-0.9993653937022993,-0.6130883653277408,-1.001910446480724,-0.469698409006284,-0.7950040808478508,-0.3921447392221268,-0.5663323103439135,-0.4053089427214351,undefined,1491594364113
903d185fccf839df,-0.07215401694856617,-0.7712281560591517,0.413663681462103,0.4111676129915745,-0.3213469396171393,-2.0271030272079997,1.9082495991005044,-0.9214594569598752,-0.3098398761591625,0.3200903166298654,0.07399589023172037,0.001640704938586385,-0.9088054255793226,-0.6447192055648997,-0.9928641107595956,-0.4797410147776192,-0.929658573930031,-0.6063501137200756,-0.9855519035502609,-0.461614225820099,-0.782840592110161,-0.41627954138125234,-0.5543811524883976,-0.4114536172032942,undefined,1491594365647
903d185fccf839df,0.11634399864123456,-0.757726825716356,0.36070916531074915,0.3832604501785712,-0.44754215370336026,-2.0226029364818747,1.8991373232900794,-1.0030043129605253,-0.273726479358233,0.15012224074632377,0.07058405797137843,-0.06312180176455724,-0.8870460115864528,-0.5965758279035884,-0.9202324092564846,-0.4938852184640078,-0.87621333156545,-0.5965150522112326,-0.9576206351483886,-0.4599357958991824,-0.760267732712441,-0.4382326235551013,-0.5670960283429223,-0.43032640796429783,undefined,1491594367160
903d185fccf839df,-0.0624519238610559,-0.6755446382953848,0.5655110170164832,0.5049275260154623,-0.5910790559412062,-1.9620823137062244,1.9263426647382587,-0.7927367784934124,-0.3833712334212418,0.11788421536608386,0.01933119071964034,-0.012748950940025875,-0.9479723707664884,-0.5363966220154175,-0.9191797754745709,-0.36254575622461643,-0.8597000245815527,-0.5964960521233773,-0.9496932490796389,-0.4504349551934467,-0.7566009169635555,-0.46043306817927676,-0.534452928424275,-0.46772770473640696,undefined,1491594368715
903d185fccf839df,-0.2966884473027959,-0.6591082183479859,0.6344161846614472,0.5060477789748623,-0.6964457379936926,-1.9576940266193041,1.9421872426532258,-0.7192724877565301,-0.32186800949718064,0.24440831496347987,0.0798994326232095,-0.007370986353859194,-0.8609347147950089,-0.5151024534249334,-0.8781271279211571,-0.22514438742209283,-0.889480644603062,-0.6032913008220987,-0.9289616983052349,-0.332097903823458,-0.7333277650870557,-0.44740735318351854,-0.4774469958638319,-0.4710720997222886,undefined,1491594370229
903d185fccf839df,-0.2467918305453899,-0.6332794999746602,0.5846510872253571,0.5762587972591168,-0.7233634089218278,-1.961311335394189,1.9651007406586478,-0.5746300290529219,-0.21017160801189227,0.6490535505285249,0.18907687832072625,0.0030346318983301137,-0.8609347147950089,-0.5262125020086837,-0.8897060958410911,-0.23726810162183193,-0.9089596665069255,-0.6107515086623131,-0.9083281028464021,-0.2436800308786194,-0.7177284713857683,-0.440664065052742,-0.41102357892430386,-0.47303543985672303,undefined,1491594371645
903d185fccf839df,-0.27451209650970493,-0.783555485633697,0.5214878898156653,0.6460312568304185,-0.6472698215390572,-2.030783224214518,1.9263873666832925,-0.8889750099710143,-0.14301246768397097,0.6699017713872176,0.23115094216559998,0.00023853369900714294,-0.7956564728163993,-0.5373224923139487,-0.8907587259418879,-0.1422994993344425,-0.8834314230645364,-0.6104285294926094,-0.8893527513512446,-0.08327442605127054,-0.6843311469051994,-0.39440125267089055,-0.42686006990632375,-0.5261101520176051,undefined,1491594373148
903d185fccf839df,-0.21214156710081555,-0.7835555002476933,0.6401584090336689,0.6892309490421953,-0.5620219633479339,-2.0183893419652654,1.9249699010451051,-0.8376935200311252,-0.17306229531171335,0.34218968680906087,0.1359618941284968,0.031182497760571536,-0.8348234180035651,-0.4243707126811051,-0.8897060958410911,-0.1867528966598338,-0.8239452957957021,-0.5547619552438072,-0.8856234504443965,-0.06028454915393421,-0.6546010341011191,-0.373477089303001,-0.32400284263752976,-0.4571256644215019,undefined,1491594374655
903d185fccf839df,-0.156700966161366,-0.8352128639243638,0.906846928252141,0.8886935055993389,-0.46449298451330095,-2.037251520816242,1.908454720628103,-0.9433600054512294,-0.2589613612012127,0.11186806759310233,0.10204108592066427,0.0019700622140071105,-0.9436204879679144,-0.5697266706358592,-0.890758718579654,-0.15442314287237774,-0.9234548229096199,-0.5761609713649747,-0.8794312730571026,-0.03888070943164134,-0.6608871807930634,-0.3731141111130755,-0.3725069337427496,-0.4654418240940845,undefined,1491594376150
903d185fccf839df,0.024866982937355963,-0.8287557281730209,0.9789420228862676,0.9988258095048084,-0.3320029237395112,-2.021356792442504,1.981926247312056,-0.4096280102956665,-0.23870878214157204,0.46341888401722514,0.09615347008092656,0.039382961368135835,-0.8826941287878788,-0.5410258116233915,-0.91286399486979,-0.22918564904260716,-0.919569836813622,-0.5815756387738849,-0.8849377633026864,-0.02160365447557096,-0.662561303079197,-0.37298860948132717,-0.40332149848023463,-0.4676028305771771,undefined,1491594378361
903d185fccf839df,0.04565711339977278,-0.8093841747790305,0.8143354876491362,0.868567233125915,-0.19360886796436394,-2.0064380147596825,1.9825179536151374,-0.3508954973216477,-0.26821948450732813,0.3836149571006559,0.12339769233888057,0.01829771264790053,-0.8826941287878788,-0.49658575974691027,-0.9454956310657644,-0.3059687436260114,-0.8932923544171106,-0.536320422806772,-0.8914657876671144,-0.028579148095306813,-0.648001273106909,-0.39865413460611104,-0.4456089349220395,-0.4639443261739888,undefined,1491594379116
903d185fccf839df,0.24108519548065227,-0.8240595497320651,0.5731666384809136,0.6462835965424492,-0.10096559620525959,-2.010481574023763,1.9847927456576915,-0.3336314972675183,-0.2656868775719122,0.6560785475265929,0.15502754428658835,0.07160075000006755,-0.8696384803921569,-0.6012050045607878,-0.9402324437506113,-0.43326705730377457,-0.9264126654711353,-0.5407978122813949,-0.9357066228770466,-0.13558293945697505,-0.6869279948527734,-0.4479652452839536,-0.5200115314554964,-0.44969647363456383,undefined,1491594380635
903d185fccf839df,0.2840517457469795,-0.7565527664921209,0.304564213896334,0.3223747661166387,-0.22193567973686065,-1.9884749219455364,1.973542432822431,-0.4166126767532726,-0.1053119373766471,0.8049278171346833,0.21233534673292534,0.05294903865131044,-0.865286597593583,-0.6160183206508828,-0.9149692697958512,-0.36254578448933794,-0.8917454913546389,-0.5414691042392218,-0.9542971493335585,-0.11581133554433008,-0.6873146853933,-0.45034291263051146,-0.4949102844808609,-0.4762395379139104,undefined,1491594382153
903d185fccf839df,-0.033345713609344574,-0.7407033615428434,0.528506135810942,0.47367379725517744,-0.37012172366982243,-1.972435781593793,1.9792569931301294,-0.40465388443629824,-0.044282526604598145,0.5781530665290683,0.25405596512353706,-0.0036430613764101664,-0.9392686051693405,-0.5419516365942117,-0.9644430244157436,-0.38275189473885873,-0.8666134739769841,-0.5305954407701031,-0.9870702110211349,-0.127483355832922,-0.6910007800054725,-0.45924513419399404,-0.48558817605327487,-0.4996355841385355,undefined,1491594383697
903d185fccf839df,0.00962083665698269,-0.725440942363695,0.6286737061522761,0.7332582179568808,-0.44898216376599576,-1.9528771595629597,1.9423949976506152,-0.6471189300530544,-0.10355491119398158,0.4693926857392012,0.19625210609122437,-0.07135662830682095,-0.8696384803921569,-0.558616693281369,-0.9823377729404584,-0.34233967423981715,-0.8891792578782423,-0.5773452325413403,-1.0001192638016196,-0.17257000498816125,-0.7194325450630278,-0.4509301107308621,-0.46037264105797027,-0.5040545463938065,undefined,1491594385164
903d185fccf839df,-0.04304773768603537,-0.6755446529093809,0.9030191175199258,1.0343467567618685,-0.5118483359029896,-1.9333627935597386,1.9238469754898888,-0.7802258240996707,-0.2384227872532245,0.2781053696578807,0.07693163756367626,-0.05768541690061188,-0.6259330436720143,-0.5910208586525051,-0.9844430552287534,-0.38679302916812613,-0.8914314482207233,-0.6322898520358831,-0.9806191523838024,-0.3288642264295173,-0.7681740056778522,-0.4539272043018462,-0.427310411569864,-0.5179246071832048,undefined,1491594386647
903d185fccf839df,-0.13452468437909448,-0.697851252065986,1.3234686235219362,1.2751511978431727,-0.5546265496079079,-1.9634915031231586,1.9185531764037214,-0.8661888840043249,-0.25471647711666007,0.524672373097966,0.05343405284753082,0.016127004654806175,-0.6389886920677362,-0.6141667095615659,-0.9939167408603924,-0.39487546761499015,-0.915483664972156,-0.6937890678877163,-1.005282910974889,-0.36092379186803236,-0.8104314966943058,-0.45307164415333845,-0.41208404668584214,-0.5023919049890649,undefined,1491594388146
903d185fccf839df,-0.07215398244315643,-0.7054824324275678,0.9827703418923817,1.0503486396383752,-0.658501802248946,-1.962482943105391,1.9841642053457709,-0.4589345352911359,-0.2685706351054243,0.5007760128034385,0.06526716198887672,0.031577192228277116,-0.5084322081105169,-0.6687908814447808,-1.000232536189641,-0.37264881134937683,-0.9793079385639208,-0.7496899616117851,-1.0142108416351778,-0.46450913408903094,-0.8591234294136246,-0.45648971450198317,-0.5164340068530134,-0.5166936662948315,undefined,1491594389644
903d185fccf839df,-0.28005621871338743,-0.698438237836115,0.5923072169636865,0.6017990307656337,-0.6427646881847153,-1.9541489250905708,1.969652938310633,-0.5414846931518583,-0.11141133126806607,0.35748805473776524,0.20533246843426578,-0.10809198337435372,-0.3996351381461676,-0.7345250954363588,-1.013916749586701,-0.3665869330509661,-0.9908872620579441,-0.7852557725288852,-1.0136930776792403,-0.4541613790587596,-0.8737620089566069,-0.45492365355543296,-0.5035963408175318,-0.5154240080175825,undefined,1491594391152
903d185fccf839df,-0.3105486492957729,-0.5974715558612632,0.7352218928827836,0.8511099927485981,-0.744747376899803,-1.9258044133456387,1.9510365360222426,-0.6650362172413357,-0.057357312422199005,0.07498675048674583,0.36577292390036503,-0.2305766585850399,0.570834725935829,-0.7298959382053212,-1.0581273537026092,-0.32213357812265714,-0.9288252262699167,-0.7725582202896144,-0.996711817424628,-0.41769786095545547,-0.8567869840814379,-0.44488326607221723,-0.4817033835872203,-0.5085468500315438,undefined,1491594392642
903d185fccf839df,-0.3937093781778986,-0.5328998329979298,0.8934488282785393,1.0324217987480107,-0.6586355247266383,-1.9457170794154846,1.93464758826654,-0.7852602295748145,-0.06077380316179287,0.27187305064458356,0.46598323386549106,-0.38878160501601755,0.2531472816399287,-0.7197117404939402,-1.0570747162395786,-0.15644378781499566,-0.819445912990153,-0.7733498385648784,-1.0161769448492328,-0.15677120421436128,-0.8120887066104032,-0.4310194631366483,-0.4761291779315548,-0.4831635406186112,undefined,1491594394139
903d185fccf839df,-0.2745122345313439,-0.5446401621883499,0.636968227907557,0.6830079170932338,-0.7678387712383336,-1.9598159641959598,1.9311972766945398,-0.8347667634436434,-0.13285730544142413,0.08069437969121296,0.33842768585320027,-0.26466413580476267,0.5229640151515151,-0.7021209106390609,-1.068653669435045,0.2618220273026565,-0.7866140298996063,-0.7761426673965448,-1.039252427285675,0.11111554958574611,-0.763133321300999,-0.4432853468323456,-0.511632670416541,-0.5116043887261665,undefined,1491594395648
903d185fccf839df,-0.14145478537558298,-0.5722299255560397,0.4449265924323719,0.48423292721122363,-0.7108662935157805,-1.9588143907537663,1.9513258154507653,-0.6765761360210195,-0.10911070974153475,0.2970945981180862,0.33779836062629337,-0.31648548877648713,-0.17333723262032086,-0.7113792380519106,-1.0623378777869132,0.3487081204813781,-0.74065677274401,-0.7861297197972585,-1.0432336126072164,0.1910796755228549,-0.7533676034974618,-0.44489354345093507,-0.49410768313471937,-0.4880474939183208,undefined,1491594397144
903d185fccf839df,-0.07076803815576015,-0.6039287354545947,0.6452622413889391,0.6433610171493209,-0.779399889828301,-1.933439659691596,2.0039298176062292,-0.3249310074446572,-0.094725795769544,0.15238910199251826,0.32320195391536916,-0.1933969183338352,-0.19074476381461675,-0.7530417696882202,-1.0581273463403753,0.273945656708231,-0.7561069394129488,-0.8179907594105342,-1.055547999334208,0.18293389883759328,-0.7774742190590593,-0.4471420289349596,-0.4879669489570866,-0.4625751719960573,undefined,1491594398709
903d185fccf839df,-0.12205063370597219,-0.7583138261004813,0.6344161846614472,0.6673922369103551,-0.5321111577044173,-1.9744086485205652,2.032060856158743,-0.13011690807682333,-0.0731709045644101,0.2824687032198406,0.3625945792249092,-0.23870549665400193,-0.33870877896613194,-0.7660034423120619,-1.0518115362866594,0.20726557485250485,-0.7624455585198409,-0.8343487534995142,-1.0496776748679837,0.23271707310006073,-0.7751911601192045,-0.4540713123606663,-0.4721132640061306,-0.4746945803527731,undefined,1491594400209
903d185fccf839df,-0.19689528279880333,-0.7688801252946585,0.7849867361819243,0.7785946823165916,-0.30746124726485496,-1.9940837320873526,1.9504159003097785,-0.6284406295601582,-0.10568782351811874,0.24131870902556415,0.39851276275551384,-0.2768000104600035,0.5186121323529412,-0.8002593029525494,-1.0665484018712175,0.21332742488619402,-0.8539299772123355,-0.8509030678901868,-1.0650776559562225,0.1987019065303346,-0.7941460060314197,-0.47468086453850095,-0.4823028495095371,-0.4858951953144142,undefined,1491594401640
903d185fccf839df,-0.09433036774165714,-0.7371812715541151,0.8794123362879862,0.9152001717198971,-0.15644664018923746,-1.986995855769757,1.9887532202462461,-0.3201508318614583,-0.09775351595627713,0.25573990337491836,0.4176243543379179,-0.3750668387523053,0.8798184046345812,-0.7863717729809511,-1.068653665753928,0.21534814049061576,-0.8075485447527205,-0.8357483331774246,-1.0607956077486325,0.14428380131936894,-0.7918877233100386,-0.4751608746559384,-0.4978312752237102,-0.4899991510773954,undefined,1491594403148
903d185fccf839df,0.16208250649317385,-0.6391496645698702,1.0127567229656969,1.0051535852312277,-0.2422293628685078,-1.9543934938430243,1.9136012507203062,-0.7940756889458195,-0.23248953697113245,0.16110096114418462,0.3952148477051727,-0.2896767613262635,0.20962845365418897,-0.7752617956264608,-1.0233904499428075,0.2598014671542032,-0.7564200836887021,-0.8293393934506007,-1.0135601383704564,0.23966177345026554,-0.7561906990883316,-0.48321525492237,-0.518470763166212,-0.4700023557511522,undefined,1491594404642
903d185fccf839df,0.09416778586978251,-0.6450198437790764,0.8500640930946731,0.8573124493518455,-0.23030824198744032,-1.9401711589871513,1.929798230679577,-0.6782428515810317,-0.24373769181220167,0.08825324761027159,0.34409123162440053,-0.2149614379628279,-0.4779690285204991,-0.7780392964404707,-1.0244431021303055,0.38507910762462694,-0.8027134494448083,-0.8227594647483237,-0.9994195840964077,0.32897275643292334,-0.7254423425825975,-0.4913679836899523,-0.5674948559552581,-0.4937815465636253,undefined,1491594406152
903d185fccf839df,-0.03195970031112882,-0.6180171246375002,0.8723945985666084,0.8830477431019566,-0.33146808326161786,-1.953592236203986,1.9565670299903997,-0.5589582891656382,-0.25779319156238945,-0.1036936386468382,0.35112983547441334,-0.20517548069084635,-0.3038937165775401,-0.7872976432794823,-1.0370746927888026,0.34264635524185355,-0.8169967684674511,-0.8181300829422969,-0.9960611155607136,0.22786656246138517,-0.7393065585528297,-0.4850063323320427,-0.607861218780906,-0.5016815653619665,undefined,1491594407625
903d185fccf839df,-0.2149135246864276,-0.6855239078774445,1.1799160638597863,1.2301505628287217,-0.5751876691487136,-1.9726966564736272,1.9838539000598001,-0.468288999483031,-0.19286751213418177,0.1293839256173533,0.2792303725593988,-0.2406047662694222,0.40111129679144386,-0.8011851279233697,-1.0076009542574524,-0.01702178820221494,-0.9028974704556324,-0.8176677785853672,-0.9807241058315355,0.12263358795078931,-0.7573333926677059,-0.48597362964243423,-0.5893984928448694,-0.5006030794451675,undefined,1491594409138
903d185fccf839df,-0.4463780215317361,-0.7324851369551478,1.1135626853239826,1.1362467453492577,-0.7139520071565006,-1.9701787479662745,1.9370223076031035,-0.8112083465852402,-0.2198382390966759,0.03774226177690736,0.19930154333530378,-0.2480182850437896,0.3445368204099822,-0.797481789187765,-1.0244430653191365,-0.2554535245316525,-0.9425484503500496,-0.8512323794831215,-0.9844953862701242,-0.08607694292056005,-0.8225884619166303,-0.47155021220105126,-0.5675198641717474,-0.4673679125817607,undefined,1491594410670
903d185fccf839df,-0.4228157954620683,-0.7542047211136315,1.0880422528628848,1.1302332272274067,-0.6355338464375239,-1.9936667960262346,1.9762905695855273,-0.5412916072601606,-0.2653108889858391,0.17821949950363924,0.1510056426252261,-0.18915222407913615,-0.20815229500891266,-0.8076659804237587,-0.9939167555848599,-0.29384511422043696,-0.9690368291983481,-0.8177057765740949,-0.9519812052025289,-0.21890393167090125,-0.8286326163494916,-0.41252067827167266,-0.5560716639222357,-0.44898614504042006,undefined,1491594412146
903d185fccf839df,-0.32025060436164426,-0.781794455253329,0.6273979386661707,0.5792561907971642,-0.6849566189609105,-2.0186991297419983,1.9584815195792813,-0.6727227842666124,-0.29787302948286415,0.005333538872870424,0.0720886504400628,-0.14978004340202425,-0.7173225824420678,-0.7502642753495976,-0.9981272612635796,-0.29788629104678666,-0.983363381829933,-0.7906957711533016,-0.9694172575891213,-0.24729866386224572,-0.8285998506332205,-0.40289217398397853,-0.4852379748346763,-0.4606494703315669,undefined,1491594413711
903d185fccf839df,-0.20105339170427008,-0.6849369074933193,0.3957993787393345,0.466403617685951,-0.4973352172276703,-2.0030676062203088,1.9660159164540838,-0.5508857460502979,-0.2993759309361255,-0.06609739833982592,0.05473321422939028,-0.004222775607504193,-0.6607481060606061,-0.6984175589526816,-0.959179822376123,-0.13421704675521773,-0.9428435455650711,-0.7476190879717749,-0.9552836991044003,-0.1404488486891825,-0.7829581894722992,-0.4166701584249755,-0.4684812383523932,-0.474322910443125,undefined,1491594415140
903d185fccf839df,-0.17333312573995502,-0.7735762598936258,0.6752488765992037,0.6612441903758537,-0.6358424153921686,-2.0275153012149447,2.0151328044543626,-0.2747277372712208,-0.26957631808332755,0.13157381283505104,0.04661454860344007,0.025701377586975507,-0.7695451760249554,-0.6567550532179212,-0.943390363501937,-0.14836134936813167,-0.8341592724605196,-0.6569440001386534,-0.9400866257456821,-0.057512821623181505,-0.7225624435871352,-0.4085555816446744,-0.44564081802947675,-0.4564792949173947,undefined,1491594416661
903d185fccf839df,-0.08878617652715519,-0.7166357173918743,0.9074848119951937,0.8959350539139561,-0.599215043847038,-1.9756547903772548,2.0015840470582016,-0.3160741345400244,-0.28697786903696226,0.42226941100032506,0.07487146745146804,0.022456531376256122,-0.7390819964349377,-0.62898005155321,-0.9023376717751205,-0.03318667922830373,-0.7921607202073334,-0.5835831803084482,-0.8862251755558505,0.02077287541614602,-0.6558870979152802,-0.42721151422165454,-0.39476201295454,-0.49043058890192476,undefined,1491594418141
903d185fccf839df,-0.09294425092721219,-0.687284982099801,1.1607754853770136,1.187000537604912,-0.7446239447263491,-1.961355590318229,1.9179956669733635,-0.9005811495348492,-0.25359754833623854,0.8625436007558017,0.05964013975427058,0.003244220637485498,-1.021954378342246,-0.5595425053014147,-0.9118113574067593,0.1426062651306435,-0.7651739838698007,-0.5257570703555058,-0.911406697839841,0.1544313809610138,-0.6110596899480515,-0.4477888543982779,-0.3152326038382131,-0.5033684405407151,undefined,1491594419635
903d185fccf839df,0.1371341636090611,-0.6456068587771978,1.1512054502725766,1.1708864798823517,-0.5045146362811781,-1.9407790917644236,1.8869113476084365,-1.0110586254404392,-0.22735264120609291,1.4940261668295147,-0.010982158664684246,0.01223556351604614,-0.9784355503565063,-0.38178237550013716,-0.9170745299974449,0.21938933144932624,-0.6943377466739106,-0.44328314457907025,-0.8857633854446348,0.3202110431683428,-0.5359173465804805,-0.4020949929660961,-0.212593304729092,-0.4521056486327906,undefined,1491594421161
903d185fccf839df,0.30899995060945334,-0.6714355040805428,1.31389833428055,1.3385574138621232,-0.4227124992752435,-1.9537180153627602,1.8946219386964989,-0.9560083718515481,-0.15737378212341385,1.5530464846144376,0.11263514683928108,-0.010611238121761117,-0.9566761363636364,-0.4336290918970531,-0.8991797520237949,0.16887411235496733,-0.6852096912146644,-0.440787965827681,-0.8509262632455047,0.40065252127776896,-0.5143255022225114,-0.39658172167241357,-0.22444251292517703,-0.419588270213973,undefined,1491594422645
903d185fccf839df,0.20782080731265473,-0.7131136566311382,0.9993586229920952,1.0268109878133773,-0.26110363357643235,-1.9779630666111312,1.9381162995588495,-0.6458731859324145,-0.22299716264992908,1.0305059293533814,0.1008774372167594,0.049041741527317564,-0.9523242535650625,-0.39937320535501647,-0.8507586864025696,0.40528521787414773,-0.7409754932716347,-0.4301612866359973,-0.8240934937536618,0.41879189140011225,-0.49730083375667283,-0.3761861308204583,-0.27032909208220823,-0.38490126268675795,undefined,1491594424156
903d185fccf839df,0.36166862846870057,-0.7577268403303522,0.9636300175465583,0.9421153204348692,0.03909472549369288,-1.9710265919186338,1.9761248883009914,-0.28342543514093926,-0.23218362900587972,0.575560513421418,0.1573821871564883,-0.053728659509568996,-0.9001016599821747,-0.45121992175193243,-0.798127034118053,0.3992233961051801,-0.7523582760966961,-0.4609583919052544,-0.7847084462831074,0.38993520478185684,-0.5047282907065417,-0.3676429107229967,-0.2809349105230604,-0.27147043134202686,undefined,1491594425655
903d185fccf839df,0.45868962835462274,-0.6943291474632615,0.5967734197128532,0.6520445031629531,0.10482033371058554,-1.956366360628452,1.959070591365051,-0.3579008876600237,-0.20377256437821886,0.6260187791388215,0.2060011738854823,0.04315484031787922,-0.7738970588235294,-0.5030666381488484,-0.7928638615273674,0.23353350687099328,-0.8097745835231728,-0.5435843094538905,-0.8042855236604688,0.29337155508444496,-0.5677583246525144,-0.37511256459977893,-0.38803455604204407,-0.27124257944897945,undefined,1491594427137
903d185fccf839df,0.691540138498147,-0.6679134579338029,0.5674249223825908,0.7194643559412389,0.1292077292088313,-1.9599370846733426,1.96392521379655,-0.3182411411211336,-0.1446100877582823,0.8341644514641428,0.22265062085576606,0.03288022497229193,-0.7869527072192514,-0.5438033253881759,-0.7876006962989158,0.1931214559602809,-0.8045718187225348,-0.561259555794548,-0.8054889758286022,0.22204595494258256,-0.5911503247303889,-0.37341744741838145,-0.410354429028963,-0.23288443947012044,undefined,1491594428680
903d185fccf839df,0.5931331253140091,-0.6743706375271343,0.6739731091130983,0.7005696351760823,-0.14730266259788174,-1.9579758652147579,1.9889425660956286,-0.2556790733634511,-0.062226277292299466,0.908388700174601,0.280833219151981,0.005618053997397854,-0.7086188168449198,-0.5919467289510363,-0.756021697565972,0.2032245110850413,-0.7374577704007687,-0.5137118147089825,-0.7913064408055178,0.32361409826574117,-0.5531046635738771,-0.3105815790391077,-0.2828457297355224,-0.20316423295957525,undefined,1491594430134
903d185fccf839df,0.5418505642692067,-0.7107655527966642,0.9138651742474176,0.9382746659230443,-0.14874266198373637,-1.972316991129397,1.9872568531714965,-0.277687865726002,-0.09821153844486984,0.8688256816659444,0.24212235313583036,-0.07979835834214351,-0.7216744652406417,-0.6345350272796806,-0.8170744274680322,0.1971626327866306,-0.7611138756247613,-0.5599486358276846,-0.834441779591082,0.2996541160743347,-0.5910755570184325,-0.3329935065252936,-0.2968110316140857,-0.21494537271887815,undefined,1491594431649
903d185fccf839df,0.15515230198045615,-0.761835959931198,0.8679281416804921,0.9009285901372338,-0.21444770332372876,-1.9949362330118352,1.8832638013004244,-0.9999538875518,-0.1517680440785102,0.9566791625628267,0.25725090139895346,-0.05479199430230309,-0.6433405748663101,-0.5058441389628583,-0.8991797961971976,0.33658461826705055,-0.7347018713256441,-0.4912108646272891,-0.7964001187138956,0.45406972682122354,-0.5216849957972125,-0.28554062243907175,-0.14937515160610157,-0.2584664123491617,undefined,1491594433119
903d185fccf839df,0.1911887167448852,-0.6696744737001747,1.1122864095639784,1.2128635449808571,-0.22889910759675997,-1.9460408427199418,1.9358257370756875,-0.6109784101838855,-0.10134956258669822,1.2269347121973626,0.2717183481635937,0.009693749953945207,-0.8391753008021391,-0.4595524759970602,-0.8791797727464216,0.09613216633319123,-0.807173310532431,-0.5035157766839613,-0.784512536508354,0.41840693057358813,-0.5245037835819826,-0.305192445192963,-0.16705449716342768,-0.2738234702190783,undefined,1491594434618
903d185fccf839df,0.2050488497270427,-0.6990252528342364,1.142911182654245,1.2494859059563213,-0.19983173030670956,-1.9476387007114953,1.9240889153135003,-0.6777719270503557,-0.08586139953836894,1.3054608105951027,0.27959626638947194,0.015210249566049501,-0.8348234180035651,-0.4521457726243018,-0.8739166148802037,0.10219404463160192,-0.8109450223565774,-0.5033384540727477,-0.787696085163623,0.4593052012212068,-0.5168185020670183,-0.30347739286148834,-0.24621221473608865,-0.30654523935203964,undefined,1491594436600
903d185fccf839df,0.18010061035915917,-0.67613163867951,1.0714539717631713,1.1228839599125475,-0.3803148446877082,-1.9489919882725852,1.8265888518604967,-1.3779080510487347,-0.03948912870592331,1.2207486479862384,0.29006534161650666,-0.027676362260463855,-0.7651932932263815,-0.46418160085116145,-0.8381270736573713,0.1426061803364789,-0.783374580907607,-0.5055993153420698,-0.8039356830126448,0.3859778026328347,-0.5326791883627189,-0.3550982935348422,-0.32507501407390316,-0.3332576942546876,undefined,1491594437639
903d185fccf839df,0.3602826841813043,-0.6919810728567798,1.1288751989375907,1.2146208716669198,-0.20968541376583674,-1.9782635380366889,1.8742330467785682,-1.0339181769486006,-0.12311519845422622,1.3410233978899344,0.25349063460935967,-0.02850886843141615,-0.5824142156862745,-0.5660233319002547,-0.8086533351260211,0.10623524972267316,-0.8428545430209536,-0.5557245647091905,-0.7885357016124358,0.3892730708468524,-0.5513486991981601,-0.3460694054273158,-0.27236445256958547,-0.2814575431924573,undefined,1491594439161
903d185fccf839df,0.24385729108790324,-0.6749576232972634,1.0465714230451262,1.1186318539346871,-0.32144979749376007,-1.988495886106934,1.8282719323623604,-1.3813463017732168,-0.131572665332698,1.1167208532508113,0.2646722577979951,-0.03481687163583629,-0.843527183600713,-0.5363966738185156,-0.8065480822866613,0.11229712802108387,-0.8348749368402508,-0.539195580758891,-0.7846034932635688,0.3444481967585163,-0.5478392082269499,-0.342372589275325,-0.3595123926549726,-0.30875453437813366,undefined,1491594440735
903d185fccf839df,0.25217337087719777,-0.6432587841707161,1.1601378557709103,1.1905648610145414,-0.35314003100352503,-1.9707773634650263,1.86684855865265,-1.1233511656889907,-0.25105168691162777,1.131390202345814,0.24331313391775877,-0.02509868500130297,-0.9262129567736186,-0.5262124955332965,-0.806548089648895,0.11835892152532995,-0.8318182887808314,-0.5272009854228373,-0.806489518187414,0.2952963579785327,-0.5588074971640415,-0.3245209834350659,-0.3424542402537006,-0.3169165546630581,undefined,1491594442257
903d185fccf839df,0.14545020889294588,-0.6514769941444155,1.2775315909550107,1.3615878019320853,-0.35819030738718854,-1.96549464933752,1.9024587519706415,-0.8785684483708743,-0.15120197490698742,1.2390726941949544,0.27967311001644496,-0.0018248425558071756,-0.9131573083778967,-0.6132408586891966,-0.8244428455358437,0.23151303151670458,-0.8445143587258448,-0.5444772542078861,-0.7838828228932786,0.3255081072306444,-0.5562809505195436,-0.36951932453259334,-0.4087911624836206,-0.3648126943819866,undefined,1491594443641
903d185fccf839df,0.5155161735814686,-0.6731965929168954,1.155671398884794,1.2225451506862943,-0.08540333774435824,-1.9267780347928067,1.9512548013295508,-0.4486178295738818,-0.11817900172502628,1.8404263627632294,0.2898858417576131,-0.08310508546080403,-0.8087121212121212,-0.5317674583089925,-0.8297060181265291,0.22545115321829387,-0.8334446715591792,-0.5075688567673626,-0.7684548547328106,0.4408424677158727,-0.5125421336944067,-0.32786960826122036,-0.23015252940993633,-0.31949478394243847,undefined,1491594445153
903d185fccf839df,0.4060209850007852,-0.6409106949502382,1.473401037162411,1.572467306852983,-0.09287075900764431,-1.9158306098115316,1.9326831130326958,-0.5677666488393042,-0.10115068230795622,1.926490492347946,0.3693689544399321,-0.031123227732896493,-0.8783422459893049,-0.454923234585988,-0.7739164829018559,0.3648731104339923,-0.7511870351058815,-0.44310582277067323,-0.716132703339574,0.6174318418574491,-0.4395188379317668,-0.29113965371490963,-0.22449613167424995,-0.2666041816758891,undefined,1491594446657
903d185fccf839df,0.3464223441666884,-0.6908070282465408,1.1882103314781178,1.231684061899753,-0.08769705114670844,-1.9297198626700784,1.9799407336505024,-0.27358758032985914,-0.1689380718703418,1.478634418965995,0.31431019462980037,-0.042545031576370886,-0.8826941287878788,-0.46325573702801753,-0.7770743511175449,0.3769966409130414,-0.7606455731800845,-0.47596113465203277,-0.738291603734683,0.6151066757469343,-0.46536453961040003,-0.2665466250170368,-0.16684571858290123,-0.21580384209606368,undefined,1491594448152
903d185fccf839df,0.04565725142141172,-0.6602822045022402,1.169069752995345,1.236555472057742,-0.31828181088801677,-1.9600698497485378,1.9042259741368417,-0.8749956367927482,-0.23772449225522904,1.0640722639839453,0.2705337887630928,-0.003707024421981319,-0.9262129567736186,-0.45399743551671684,-0.7897059565005095,0.3264815914070117,-0.7233883110808003,-0.4612687057357333,-0.7329180532505457,0.6743906894496804,-0.4481449286369086,-0.2823804511045463,-0.15674946729666062,-0.20980062150598344,undefined,1491594449650
903d185fccf839df,0.28266580145958325,-0.7154616727816353,1.147377385403412,1.224095939251212,-0.3157206673181341,-1.9878763078688344,1.9213907139143205,-0.7931374908251096,-0.21207430659360835,1.1091929183646108,0.16733020357377215,0.1124472600729237,-0.8217677696078431,-0.40400239496299045,-0.7676006581236722,0.3466876168623679,-0.7424301939792788,-0.4478301987761543,-0.7304201921957661,0.5664629842127487,-0.4540710979462017,-0.29126841604237225,-0.15799886780319505,-0.21796283528281138,undefined,1491594451165
903d185fccf839df,0.29652593444174075,-0.7054824178135717,1.0925082014751022,1.1344936589561507,-0.32891721615636865,-1.9900727809065661,1.9082311690020621,-0.896431689544628,-0.16538983050664752,1.0948731982716062,0.2151967846287584,0.04822248690643777,-0.39528325534759357,-0.4382582815050271,-0.730758553060147,0.2557602055336889,-0.7742458223254842,-0.48395964403916186,-0.724801753306477,0.42690686935014505,-0.4945652659829854,-0.3265033397613075,-0.25483372803373866,-0.23556272466105055,undefined,1491594452643
903d185fccf839df,0.37137072155621087,-0.6937421178511439,1.100164585350381,1.1284128211330977,-0.29618812737975325,-1.976656363754666,1.920438748629721,-0.7897725965537838,-0.16450311259833755,1.2606624452617956,0.20042448022513965,0.08399793441175187,-0.49102467691622104,-0.4086315327678663,-0.7433901142697089,0.1749358775944919,-0.766962304931148,-0.5035601045988835,-0.7487378443616071,0.28317777785825554,-0.5311377412248814,-0.33466779469463664,-0.2692319544120032,-0.23972003264047517,undefined,1491594454192
903d185fccf839df,0.2812797881613675,-0.6174301242533751,1.225852588152813,1.3517267694858837,-0.23454594748685176,-1.941906443065659,1.9249883196208075,-0.6971387130053087,-0.154375202870152,1.359395956966492,0.30811946290982234,-0.001846572400939404,-0.9740836675579323,-0.3493782166043883,-0.7381269416790234,0.2719250824274169,-0.7214058925818098,-0.4326817996535958,-0.7277404148289428,0.41458811272386936,-0.46658141590249097,-0.3491373418915552,-0.25158059756334955,-0.2032418394399967,undefined,1491594455760
903d185fccf839df,0.3242460623844169,-0.6274093938354348,1.3515408450921944,1.3628605601366501,-0.3294726505902155,-1.9020717937158538,1.9004943081624517,-0.8335657170225856,-0.1479069550586336,1.341183880890378,0.4018935610218162,-0.007428145091848284,-0.9784355503565063,-0.31789988267945973,-0.7444427370082719,0.3689142307308989,-0.6780216472649124,-0.41528520406388325,-0.6959539029794961,0.5256417037326282,-0.4287647942484935,-0.31752385776932796,-0.2454274343183976,-0.15166448131260388,undefined,1491594457142
903d185fccf839df,-0.030573687012913065,-0.6373886195755061,1.3132601964005477,1.316744461850264,-0.34974576036327404,-1.9044150079930073,1.9460609442026982,-0.5517616674933002,-0.16930546377467517,0.7943555587228228,0.4644220204647838,0.020503766804050947,-0.9349167223707665,-0.3919665408345817,-0.751811169800551,0.38507919241879157,-0.6824928043297266,-0.43888175230550575,-0.7442109073084368,0.4142339509287454,-0.4750934052128322,-0.27383553991617465,-0.1946049280626877,-0.09428812259900392,undefined,1491594458649
903d185fccf839df,0.07753548826955456,-0.6943291620772577,0.9617161121804507,1.022313055538828,-0.4552461520601098,-1.9574983710047589,1.9322649737582152,-0.7341780622636578,-0.16000940433225294,0.5933729894638478,0.3065593835072564,0.03176447337232849,-0.7782489416221035,-0.438258255603478,-0.7749690909159512,0.4618622587374743,-0.6565867323784467,-0.47660709776404636,-0.7322953380673684,0.4569954359120425,-0.4849907654842495,-0.2914778551606133,-0.23404910362431253,-0.09685871034446412,undefined,1491594460177
903d185fccf839df,0.1135718340231641,-0.7424644357651999,1.0140329987257013,1.061480449017141,-0.5201591823669205,-1.979018212215566,1.9651585848121083,-0.5616708647703832,-0.20121390220239496,0.7763628588289234,0.2574577543380236,-0.021090584927032297,-0.7564895276292335,-0.4743657532348315,-0.7644427899079831,0.35072882195343913,-0.6745789861461854,-0.48354167014402066,-0.7429234934281344,0.40879830305178355,-0.5037703636385203,-0.2635447407161121,-0.20779392152653522,-0.05470432540530401,undefined,1491594461651
903d185fccf839df,0.16069635517331915,-0.7506826165109071,0.8704804390635513,0.8593791494772416,-0.5160140475947131,-1.9936947483275063,1.9736291906724477,-0.5082385928149062,-0.23271959878928766,0.9217823608683372,0.1564350701560442,0.0016301598813586492,-0.6563962232620321,-0.6178700223956215,-0.8528639245174618,-0.10188733536484398,-0.8421269042255595,-0.6033102994482744,-0.7765011888681276,0.1732790799239064,-0.6134800156384999,-0.30786744725907406,-0.3344729100510023,-0.1862936099616922,undefined,1491594463165
903d185fccf839df,0.07892160508399951,-0.7189838066123521,1.003824825741262,1.1339035230627919,-0.5041546417681037,-1.9843917674866571,1.9138274002003963,-0.8845144376109114,-0.3061286853843295,0.9157807164963869,0.16059868431562702,-0.02313206494518273,-0.5606548016934046,-0.6512000451145142,-0.8402323338589649,-0.16048496464134537,-0.892623183313235,-0.65618404504812,-0.8245832733288774,0.03903543162120565,-0.675530178956345,-0.35792297111666777,-0.39567719230727494,-0.31070934941696265,undefined,1491594464663
903d185fccf839df,-0.04859175637348864,-0.7195708216104735,1.003824825741262,1.0853923987366698,-0.5486505707614574,-1.9604774682008796,1.9041444607046867,-0.9304858428134232,-0.29796987393477836,0.9266003905775938,0.09952961041888632,0.06354851809183511,-0.5737104500891266,-0.6187958667926036,-0.8476007813757116,-0.20695895037991152,-0.9143868562080273,-0.6439614638670235,-0.8166279000410893,0.06937036923116399,-0.6675871410545722,-0.3467872355235573,-0.3726692551184851,-0.3346486683173686,undefined,1491594466162
903d185fccf839df,-0.07492604354499767,-0.7665320799161691,1.063797842024842,1.063169295057789,-0.559759125595533,-1.9747720089809722,1.8856911135636956,-1.0677034012711224,-0.31591301041688347,0.6293829329133077,0.0906203128181073,0.06768946110114597,-0.7913045900178254,-0.5817624988627189,-0.8528639318796957,-0.1645261697324166,-0.8980991468754873,-0.6313019098490202,-0.8079448571864802,0.07058684581561686,-0.6581888171700927,-0.36500949418649525,-0.3944919220557548,-0.3484003185730202,undefined,1491594468993
903d185fccf839df,0.0013046878568687057,-0.7665320799161691,1.063797842024842,1.063169295057789,-0.553309993678446,-1.9739055319774321,1.892573316036949,-1.019774401709519,-0.3162472767956229,0.6337730109140032,0.08775688892325917,0.06807116149102355,-0.8130640040106952,-0.5817624988627189,-0.85391657670496,-0.17462919659245546,-0.9022913546913526,-0.6311055886669977,-0.812520771585466,0.041237409360411696,-0.6657977198918027,-0.3620849264846599,-0.38289795438610874,-0.3567503567983851,undefined,1491594469150
903d185fccf839df,0.2078208763234742,-0.7448124665296931,1.0389152933067969,1.04891762743666,-0.37171601283838107,-1.9684155147318574,1.91663340835252,-0.8206433039447965,-0.2171072558936352,0.8336661433091056,0.17654623971197939,-0.019811008261977747,-0.9349167223707665,-0.5326933221321365,-0.8854955386267349,-0.19483530684197625,-0.9048020802114425,-0.5552622561222481,-0.8557400720281456,-0.01065535067620217,-0.6494324410589827,-0.3767763059102864,-0.3447002048483392,-0.38803650769145925,undefined,1491594470641
903d185fccf839df,0.2604893126448533,-0.7753372756599977,1.0184989473379187,1.1081375681071273,-0.2662978963951642,-1.9902474731339361,1.8978565938142176,-0.9385790577716491,-0.1843854597844284,0.9286299377988232,0.23089060084166793,0.03246844308278139,-0.9392686051693405,-0.515102466375708,-0.8781271352833909,-0.12815523911861088,-0.814846498766738,-0.4842256271919224,-0.8384369593846485,0.11413365284944327,-0.5890755449258757,-0.3619474984287715,-0.28734342272387203,-0.366330595154969,undefined,1491594472253
903d185fccf839df,0.2632613392412848,-0.7583138261004813,0.8889826255293726,1.0331248408283644,-0.30126926194081516,-1.9878367107844628,1.913293559001212,-0.8527669235195796,-0.14051841740373688,1.1843911563723761,0.2814017099368383,-0.064903422904923,-0.9784355503565063,-0.5373224599370122,-0.8739165780690347,-0.14229947106972096,-0.8025581388750263,-0.41404394569680136,-0.8388707611084669,0.09976690242685698,-0.5648471396274226,-0.34295833036194545,-0.21756182939400082,-0.31093772463297803,undefined,1491594473640
903d185fccf839df,0.12604602271792537,-0.7225058819870842,0.658022457619488,0.6655240266198016,-0.39709081835991983,-1.997647466754701,1.9125072524794295,-0.8933683868944773,-0.13614066055304558,0.899236338802406,0.26480536693907414,-0.06434106489293197,-0.49102467691622104,-0.5336191082506331,-0.8823376556865782,-0.027124857459336103,-0.7916517347164195,-0.41273302627253117,-0.8303346512761511,0.16153006357132474,-0.5485140067325466,-0.3560610865554088,-0.234614001754388,-0.2877247865009498,undefined,1491594475174
903d185fccf839df,0.18703060783941847,-0.7741632602777511,0.7269276252644521,0.8235814540652681,-0.367766297093504,-2.0197868867155275,2.000671496876142,-0.32204739054942566,-0.1457173993072331,0.8657199558508265,0.2680519922545193,-0.074813082699723,-0.4213945521390374,-0.49195662194203443,-0.8886534510158267,0.09209101777156306,-0.774794157797885,-0.42186513166990036,-0.8554462054697262,0.16037517808965762,-0.5623063611022817,-0.3021649720344071,-0.21546303661125768,-0.21216788514810653,undefined,1491594476649
903d185fccf839df,0.2521734398880172,-0.7700541552909013,0.7556384929886112,0.8235814540652681,-0.2638293278576065,-2.0070808870045465,2.0003901126193804,-0.2781210089539377,-0.152687081278098,0.6373040179906552,0.26556373447662684,-0.10510451432140959,-0.9131573083778967,-0.48640160736324023,-0.9097061045673995,0.1405856201880256,-0.7886991678035801,-0.4353796331563282,-0.8634365630015266,0.16872113515806253,-0.5686065579025691,-0.31258186927114534,-0.2288994254791403,-0.2071350193597983,undefined,1491594478142
903d185fccf839df,0.275735665957685,-0.8404960135214525,0.6905611360758624,0.7181941565595654,-0.1674626255564372,-2.0278087860857674,1.978728394777523,-0.3992792676541858,-0.15751752566160662,0.7404295375012945,0.254337369958801,0.056079894655777104,-0.9871393159536542,-0.6252766739652817,-0.9097061119296334,0.08804975615104875,-0.8279120059936148,-0.5795110970532688,-0.8668230195208919,0.1606061532366486,-0.6450044315754861,-0.31855502702907434,-0.3092201155848334,-0.23054879987330873,undefined,1491594479672
903d185fccf839df,0.4434433440526105,-0.8416700289036991,0.7090635766786331,0.7181941565595654,-0.13222382965720506,-1.9975193584418778,1.9814923229316626,-0.34173601108820884,-0.18744096064105384,1.1083653992176987,0.22975217934522563,0.03955206924398624,-0.847879066399287,-0.6558292088209391,-0.8991797667482624,0.10825586640056956,-0.829800374997052,-0.6024806865007456,-0.8581889538958742,0.1368771480096448,-0.6507478046760197,-0.29453942501147345,-0.30966912435620564,-0.22580594942192328,undefined,1491594481151
903d185fccf839df,0.3810728836545406,-0.8628025834500652,0.9081226957382464,0.9352199432523103,-0.27840416164139786,-2.003295870944706,1.8826852455859437,-1.0432339713821077,-0.2867433350698125,1.174017732193733,0.11798791253833876,0.004160686333344546,-0.673803754456328,-0.7095275751594956,-0.9191797901990385,-0.07157819825528432,-0.8413586500260191,-0.6704078402903285,-0.8763526749928988,0.08732495221935899,-0.6971235124721278,-0.32975816357563026,-0.3812804387923975,-0.27561592263497026,undefined,1491594482651
903d185fccf839df,-0.020871455903763863,-0.8563454476987222,0.9993586229920952,1.0352233863916296,-0.42588048462665995,-1.969978433954385,1.8709720873410816,-1.1407046917152786,-0.3104251057606902,1.0972804017069862,0.09021232126231879,0.02928151867839223,-0.7347301136363636,-0.6678650499985733,-0.9465482758910287,-0.14634070442551372,-0.9139689722597334,-0.6809141944213983,-0.8835034160820037,0.05575814237966203,-0.7076685323254842,-0.33986065667168125,-0.3939217368821322,-0.3139185048306535,undefined,1491594484158
903d185fccf839df,0.008234754347947466,-0.8152543247602443,1.0663496311340024,1.004703316432644,-0.49245979968417924,-1.9737960574043896,1.852571343602016,-1.2831329669409923,-0.3464494090314717,0.8163045311664214,0.048091270740669906,-0.00307983270497919,-0.8261196524064172,-0.6567550532179212,-0.9612851120266518,-0.2453505259363352,-0.9578157307937615,-0.6907745868024744,-0.8805017845951669,0.03968216689536673,-0.7148909018877126,-0.36624343636957035,-0.4140364331603995,-0.3472161460470275,undefined,1491594485647
903d185fccf839df,-0.018099567328971295,-0.6737836079150168,0.8015750172816378,0.8605644146621286,-0.40153423349497924,-1.9646095382399325,1.8990163429030553,-0.9326632378566757,-0.39359855232781116,0.7509028554361667,-0.017611751782809347,-0.04105096414233051,-0.9175091911764707,-0.6160183530278192,-0.97602197761121,-0.2716184296901021,-0.9453250417154733,-0.6754741953429754,-0.8698316479225954,-0.009808436472827276,-0.7118975307314004,-0.37119406104538194,-0.41608213002985645,-0.37511391548334416,undefined,1491594487234
903d185fccf839df,0.0761494749713388,-0.608624884667558,1.119304655559255,1.1986208638445126,-0.4745421151030784,-1.9624130660538905,1.8651128852240784,-1.1613858138693498,-0.4193142254829996,0.7926460788264327,-0.08996700379620538,0.00498624549088674,-0.9131573083778967,-0.6521258765607217,-1.0023377963912345,-0.26959775648276263,-0.9828455774346316,-0.6912432244297448,-0.8921164911398158,-0.05355542064538059,-0.7345498920246057,-0.41060789498690287,-0.4350169660205819,-0.4359945250879777,undefined,1491594488645
903d185fccf839df,0.20089080983239543,-0.5869052858950783,0.9074848119951937,0.970907342489475,-0.3876691162317342,-1.9371384901842004,1.9110634825214745,-0.803818682096317,-0.41067026875676943,0.9375043068876505,-0.14596108152632176,0.02620951486812545,-0.9827874331550802,-0.6826783790394428,-0.9770746224364744,-0.16856743135293092,-0.9549765453624863,-0.6919715141319547,-0.9093566335497917,-0.03938885056555071,-0.7371978758888862,-0.39543934579593665,-0.4163320952640786,-0.4066215158132745,undefined,1491594490191
903d185fccf839df,0.005462727751515963,-0.56166359713387,0.7033213523064114,0.7705536251242201,-0.37462685316315825,-1.9101565828861047,1.9304030854762153,-0.6522478501758725,-0.37350511932072505,0.9014697536098201,-0.10648352801351979,0.011465148373762881,-0.678155637254902,-0.6826784049409919,-0.9507587594830471,-0.1321964442096821,-0.9087198824770876,-0.6607311022737602,-0.8910109950641204,-0.06682887981234102,-0.7255207752590919,-0.39328698767022735,-0.4041221712816578,-0.39982525516136586,undefined,1491594491644
903d185fccf839df,-0.05690787066819289,-0.6285833653756929,0.37602142478740785,0.4760107347877382,-0.495463219962564,-1.9127420374982838,2.0099573428577333,-0.16630039802320062,-0.3262789432323233,0.6058037806770216,-0.06479791272176262,-0.041890139672090806,-0.43880208333333337,-0.71230508892428,-0.9402324658373127,-0.08572245847111595,-0.9270303645573429,-0.6809965213437946,-0.9023178415692891,-0.06145482621526986,-0.7327928908366689,-0.3983095955993501,-0.4371151428702451,-0.42839176420869096,undefined,1491594493161
903d185fccf839df,-0.27174013892409293,-0.6908070720885293,0.22353671376387374,0.2673746164566508,-0.7071428706777221,-1.9350328575190026,1.9840905687537451,-0.41769436920694836,-0.32695885408242636,0.18002090679780028,0.00126737667631308,-0.008884917436540771,-0.36917195855614976,-0.7206375978416968,-0.978127259899505,-0.15240258272392443,-0.9276768714148993,-0.7192285022965266,-0.9445505923206484,0.007129849062063361,-0.7481634930885274,-0.38026935387154864,-0.46604095911472204,-0.454984191759986,undefined,1491594494663
903d185fccf839df,-0.33272479305640545,-0.7923607252195141,0.289889838162728,0.3430247373131477,-0.9188533716142062,-1.9884283371860958,1.9858577935387496,-0.522863611580264,-0.2890543818381542,0.036060050535497844,0.09413738570465664,-0.23047656278396048,-0.3343568961675579,-0.7224892477833373,-0.996022001061986,-0.18473225171721586,-0.937753012951829,-0.7535783882601073,-0.9816546804975406,0.08010308231472381,-0.7573415851768743,-0.41684647632800953,-0.4840417929391088,-0.4596606076289095,undefined,1491594496147
903d185fccf839df,-0.33272479305640545,-0.7935347844437491,0.4187682762282214,0.35506523993136413,-0.8745528750136639,-2.0065917451696134,1.9153369210063125,-1.0047576979530897,-0.23454245468891677,0.18687219120176166,0.19939789571317887,-0.1735061166480292,0.009441844919786108,-0.7437834357999831,-1.041285205829756,0.11431774469898025,-0.9058088475998167,-0.7901448045716786,-1.0010148559975605,0.27295321356865937,-0.7302244975541222,-0.4484695840597552,-0.5283495666100816,-0.5122691476008128,undefined,1491594497654
903d185fccf839df,-0.3299526974491545,-0.7230929189061999,0.4870355601301327,0.5459063484206024,-0.8164283980805048,-2.011108140520883,1.9266214197153178,-0.9214357527051749,-0.1570446108947476,0.3711691131701396,0.24082887339505493,-0.2477237182165283,-0.09935522504456328,-0.739154265618171,-1.0549694413135173,0.04561706029771846,-0.9041560798056553,-0.8189786973507742,-1.0311221331815512,0.24224871301220635,-0.7582345451325534,-0.46097069678344066,-0.5497854695011487,-0.5173188539525406,undefined,1491594499173
903d185fccf839df,-0.39232336487968283,-0.8035140247978165,0.8449600066024535,0.9035918036406461,-0.7790810345864643,-2.0012205206812013,2.0062940271566347,-0.3782780490624147,-0.1538810042885241,0.24938464642558544,0.22907671246648137,-0.2928234146576531,-0.3430606617647059,-0.7363767777549356,-1.0370746707021012,0.17897716747972772,-0.9049861677822564,-0.7956038036216869,-1.0163028880873044,0.27420048672090913,-0.7371650323473357,-0.4746212012255892,-0.5229668467377692,-0.5115505027518067,undefined,1491594500646
903d185fccf839df,-0.37984931420656054,-0.7647709910798165,0.970648263541835,0.9912149669543567,-0.7256879864271198,-1.9898887716140516,1.9560831398679581,-0.6826365447398569,-0.15605176167026857,0.08309984495096076,0.21094237672748534,-0.3362658266701213,0.8841702874331552,-0.7419317729075681,-1.030758897459554,0.2274717981609118,-0.8923209734069703,-0.809947921062053,-1.0068431992437354,0.2582015011348659,-0.7429347372986025,-0.4832507323191485,-0.5192290932229008,-0.506912645704715,undefined,1491594502239
903d185fccf839df,-0.4200436998548173,-0.763596990311566,1.0389155474437464,1.085759389996996,-0.6934834681894637,-1.9984440670306547,1.9486039735797402,-0.7346905326538414,-0.1307457391032367,0.10195434347782625,0.26918685250281904,-0.32651541596919137,0.8580589906417113,-0.7530417826389947,-1.0454957335951771,0.0718849357867638,-0.857168511577833,-0.8082443590190512,-1.0107264298919973,0.17317128554201924,-0.7614017386298275,-0.48867634316789105,-0.529372103414467,-0.496640768946298,undefined,1491594503650
903d185fccf839df,-0.5267668618390692,-0.7512696607370207,0.9661818066557187,1.0190605093653295,-0.6547681023520989,-1.9722308095859413,1.9817710779087216,-0.5011978665107346,-0.14573049286068265,0.00980734786291035,0.3327907476229083,-0.2610189441907489,0.11823891488413549,-0.7604484536348167,-1.0339167877619444,-0.16048493637662384,-0.9300148980899772,-0.7820513041576048,-1.02884117359427,-0.06776818962906132,-0.8051028318530873,-0.4912872299522308,-0.4715005415647853,-0.5181228203832491,undefined,1491594505162
903d185fccf839df,-0.6806144069518372,-0.7806204544850787,1.0663496311340024,1.1285558697904137,-0.7731256162792634,-1.9686810489753408,1.9482226410785326,-0.7508651575426278,-0.0717864144206253,0.13343257163179836,0.450240230647201,-0.2541887584270161,0.04425690730837791,-0.7187859284738944,-1.0265483623318992,0.1991831929350839,-0.8010797030118991,-0.7631348023510782,-1.0073259802769459,0.14436079233499238,-0.7451724711154234,-0.5023768607937598,-0.43685437207180744,-0.4973743966435877,undefined,1491594506694
903d185fccf839df,-0.6376480637179683,-0.7776853356524832,0.869204163303547,0.8980948258290806,-0.8135792643539826,-1.9608734386568052,1.8845445077308065,-1.1703785614705047,-0.07952498423792942,0.10386072067230266,0.41393617450654563,-0.20411232863758239,-0.321301247771836,-0.7206375913663096,-1.041285205829756,0.18503896098397382,-0.8412472844603056,-0.7622671878879657,-1.0389165810181198,0.25673864825205167,-0.7338107415881844,-0.49404834572832584,-0.43872087238249424,-0.48347724591508145,undefined,1491594508146
903d185fccf839df,-0.45469403231021116,-0.7213318666048376,0.8602717578052134,0.7958624746599533,-0.734183967911783,-1.9712571870854871,1.9556571012316297,-0.6843316140971334,-0.09380802733473367,0.019336933817857352,0.3879436844213434,-0.11542795412328774,-0.3517644273618538,-0.7493384568541647,-1.0328641650233814,0.0638025397369821,-0.8334690347762012,-0.7815066708131024,-1.0238524474391992,0.07885580904131315,-0.7724815999128918,-0.4987190783760879,-0.42910958909561214,-0.5237959936259471,undefined,1491594509640
903d185fccf839df,-0.3188647290850674,-0.8228855635778108,0.9132270363674154,0.8732785067720006,-0.7549405023868528,-2.005555234810819,1.900381214567014,-1.0789170280154503,-0.18213560422961558,-0.2034048524587774,0.28630369933955047,-0.253756066119304,-0.504080325311943,-0.7447092672461907,-1.0054956940558588,0.1466474843540755,-0.8591797222372078,-0.7662886064254896,-1.0033517911362237,0.07017108558074814,-0.7542770244751429,-0.48701833033255393,-0.4623548298635472,-0.5595200734914927,undefined,1491594511178
903d185fccf839df,-0.1968953518096228,-0.8199504739732077,1.197142482839502,1.248247597180643,-0.7016503071728447,-2.0257031537653227,1.9910201055942998,-0.4775089477555982,-0.211180906499999,-0.053561213731940054,0.24090522690028449,-0.2203781008845522,0.37064811720142604,-0.7132309138951003,-0.9960219863375185,0.047637662843254075,-0.8613745249919116,-0.7670548925938441,-0.9899878820987367,0.09579410041884609,-0.7466504075497291,-0.4708475398392329,-0.5136349681995117,-0.5572357921364728,undefined,1491594512641
903d185fccf839df,-0.2828282453098189,-0.8463661781166625,1.2181964584144835,1.2162321720291294,-0.5359580138862343,-2.032427665657172,1.929913932604281,-0.8482080952860729,-0.2146123728798074,0.27009445204569904,0.22627023764786094,-0.08995936093904862,0.057312555704099835,-0.7567451084238248,-0.9791798605513666,-0.3019274820054971,-0.9592388615146166,-0.7884855727689987,-0.9916181390024172,-0.2476682257721426,-0.8283837027636167,-0.4500794434209512,-0.580917982194085,-0.5561547009747652,undefined,1491594514150
903d185fccf839df,-0.0028532830269590824,-0.7641840053096874,1.2692375774736286,1.2720298976326512,-0.4874506645682737,-2.0168636892587117,1.9308922236828443,-0.8061539748937502,-0.21230037842447091,0.5776993347205976,0.22964024324093202,-0.08522654191633745,-0.6433405748663101,-0.7132309268458747,-0.9623377494896824,-0.3241542230652751,-0.9261822297998584,-0.7918167010824035,-0.9730416063817557,-0.3255381657806315,-0.8427905409071241,-0.4223788425691646,-0.5904041705716165,-0.5028014730253099,undefined,1491594515656
903d185fccf839df,0.11634392963041508,-0.747160555750171,1.1933139096964387,1.1541464742608698,-0.2712555917409382,-1.995283287867654,1.965624078356805,-0.49386663491587257,-0.24373307994975513,0.6108271307182263,0.24206116269242067,0.11137813082490741,-0.6999150512477719,-0.6734200451512058,-0.9486535360926224,-0.2675771398048662,-0.9172000236752765,-0.7774409185914505,-0.9572078230986846,-0.1365992413393789,-0.7972743227342683,-0.40463130646893375,-0.6235569670857777,-0.4331649655741938,undefined,1491594517244
903d185fccf839df,0.33256228019535033,-0.7671190656862982,1.082937912233716,1.0437549712666947,-0.24914133920721487,-1.9899586479008435,1.962586646452359,-0.5051185038581452,-0.28909216753514455,0.553917623966955,0.18439423861039497,0.013877829889193583,-0.865286597593583,-0.671568388734178,-0.9181271674604754,-0.15644375955027412,-0.8116191400118703,-0.7605699567677583,-0.9195929671160888,0.026793664327765147,-0.752906134018019,-0.37366241776152403,-0.5781539541853594,-0.3895685972753981,undefined,1491594518638
903d185fccf839df,0.5667987346262708,-0.8064491290164159,0.7843488524388715,0.870248964489884,-0.1702808984068579,-1.996580675227805,1.9795883431289396,-0.384424881305966,-0.2517253144511612,0.7472570681970878,0.17572414433738215,-0.0525827793297461,-0.7303782308377896,-0.6780492282837924,-0.93075877284344,-0.05945458298207061,-0.8019298245951128,-0.7713042960517876,-0.908013244901091,0.09750332646330372,-0.7406213153691767,-0.3771339134329134,-0.5468696938965502,-0.39257596150947816,undefined,1491594520160
903d185fccf839df,0.29098188124887775,-0.8129062647677587,0.6982172658141917,0.7570366568630824,-0.32666464337360757,-2.0124195015069537,1.9259061152682497,-0.803252543420507,-0.20472800848095707,0.7035076945576404,0.20874885650751338,-0.09074908197293408,-0.6607481060606061,-0.6289800127008863,-0.9233903326889271,0.06380249733989979,-0.8123202032102991,-0.7471567831608386,-0.8540328482534791,0.1583887800810161,-0.7034209097559907,-0.3448643893744264,-0.5130032158333248,-0.32694387687708526,undefined,1491594521641
903d185fccf839df,-0.06106597957365962,-0.8457791631185412,0.7103395983016879,0.7416062937037862,-0.48457067142203,-2.0217411173923,1.9130069098999134,-0.9275984426577311,-0.15417936627501927,0.48525750787081223,0.29718293164965115,0.022547646085883256,-0.7695451760249554,-0.6058341812179873,-0.8739166296046712,0.10623530625211623,-0.7943602822277089,-0.672447046094809,-0.7819656959423192,0.23253229489142335,-0.6305824364177528,-0.3148221884589812,-0.4642335125348798,-0.2904295876645882,undefined,1491594523140
903d185fccf839df,-0.00146726972874333,-0.7565527957201132,0.9897885878876583,0.9414579609325415,-0.5195934715644651,-2.00928900341103,1.914613724530049,-0.9148699674240192,-0.12389482198380447,0.39269234063963565,0.3652498458456054,0.030284502654694782,-0.6825075200534759,-0.6215733352296771,-0.8539165472560248,0.19918327772924851,-0.7873295685456353,-0.6500284257536748,-0.7592330580401695,0.2432496158298977,-0.6148434339766514,-0.29175838443986085,-0.3444121154679273,-0.19895511774768967,undefined,1491594524679
903d185fccf839df,-0.05829381495558918,-0.7565527957201132,0.8328376741149573,0.8888591753536755,-0.5257854591610966,-2.00743027070092,1.907715745331058,-0.9554461317881262,-0.13763450256986487,0.08934974444363639,0.35735091884327513,0.028204750006894274,-0.669451871657754,-0.5586166414782708,-0.8128638776159097,0.15270926372596083,-0.7946292406718899,-0.6224484574670925,-0.7287689434341805,0.2998389025892168,-0.5835029014734613,-0.23674329625313922,-0.23691442437695584,-0.09660623215707188,undefined,1491594526208
903d185fccf839df,0.016550834137241982,-0.7230928969852056,0.7913665901602494,0.7131351304691886,-0.4699444095731556,-1.9648541081299353,1.9886322513819616,-0.34104529856939797,-0.09016401177762895,0.039052637094756905,0.3263486969078554,-0.061457888204269104,-0.7303782308377896,-0.4762174679303447,-0.7212848158928716,0.2739456991053133,-0.6865661600580115,-0.5416464302278017,-0.6517060685057456,0.33357689738323143,-0.5077222086992688,-0.21476432657100536,-0.3213940036435616,-0.13655985738701565,undefined,1491594527646
903d185fccf839df,0.3381062643773939,-0.5751649567046582,0.8991907985138117,0.8048121372402931,-0.1826134598167585,-1.9177801837463182,1.9927084488456566,-0.12955798032163593,-0.21362584005096963,-0.3028241737923136,0.23197501948947666,-0.04739003000405659,-0.8261196524064172,-0.4419615813883081,-0.6781268713266952,0.3143578348101903,-0.6666636981909619,-0.5153647133299085,-0.6448701849521087,0.38739446394875676,-0.47661899274949737,-0.28607163690956217,-0.3675890673403728,-0.13365206665798268,undefined,1491594529149
903d185fccf839df,0.46561976385652093,-0.4536527790235501,0.576357073743975,0.59852896798725,-0.07183650065191542,-1.8628101383697648,1.9514494188323612,-0.2548595786100518,-0.23660219800611032,-0.7814493843319318,0.2121252799411806,-0.12540519477024292,-0.6868594028520499,-0.4169640611114449,-0.6991795322405019,0.6275521479716611,-0.5921105484215908,-0.5068785689627665,-0.6800991277651148,0.5168799917200425,-0.4576274283304424,-0.31809790808764743,-0.39889082533914005,-0.14206969808292305,undefined,1491594530645
903d185fccf839df,0.4808657031044358,-0.4606969151590182,0.6682306306039271,0.6937574138299432,-0.13387982707644952,-1.850809897517072,1.940093912811033,-0.33232426255953734,-0.2788219918408546,-0.8582428191095881,0.21017252289342936,-0.02801134082067937,-0.7129706996434938,-0.3938182296285459,-0.7170742954896844,0.5426865301472282,-0.6054489571935664,-0.5001086528526445,-0.6751733730608606,0.4504818939325195,-0.4622247792539739,-0.32409935153762165,-0.4000159087815053,-0.14723348376200734,undefined,1491594533093
903d185fccf839df,0.45591753274737173,-0.547575251792953,0.7817968091927617,0.8439751383033148,-0.21906596959295338,-1.8915645957436273,1.908538863863722,-0.6249142265106781,-0.27775489638757145,-0.8190801723628177,0.2148463167395591,-0.04186110519555785,-0.6955631684491979,-0.43362907894627856,-0.6833900439173807,0.457821053646403,-0.6304661747223855,-0.5094054141710558,-0.6713671072343691,0.38477672571889837,-0.47428896289101075,-0.3711476138625317,-0.49740727759620956,-0.24174025730351892,undefined,1491594533775
903d185fccf839df,0.17594253595910217,-0.5246816522522226,0.7875387794280341,0.7542258772477227,-0.5232654585314074,-1.881723560304136,1.9267897145667296,-0.6061823513170687,-0.32088000764256536,-0.8939372677611933,0.23882353095430167,0.00010330262697280906,-0.49102467691622104,-0.4012249459520788,-0.7170743102141519,0.40528516134470466,-0.6939197472134205,-0.48958963257399646,-0.6285676150956178,0.49469082957027555,-0.43075757021233885,-0.3751069937959704,-0.5598569019871522,-0.30568319644842346,undefined,1491594535175
903d185fccf839df,-0.21768558578826883,-0.5129413084478064,1.013394860845699,0.983542820164209,-0.8798397191583601,-1.8919209692963919,1.991148959155127,-0.3438215524924452,-0.3409560307126949,-0.7908501058525017,0.2906176688271812,0.05947204174936113,-0.865286597593583,-0.596575840854363,-0.7128637603620295,0.3972027794272837,-0.7315455597494175,-0.5444392567174584,-0.6782939512012236,0.44580076212813546,-0.48077440461591436,-0.44108593441812327,-0.6451365806879924,-0.3935836037289762,undefined,1491594536658
903d185fccf839df,-0.2994604738992274,-0.5428791171939856,1.1046305339625984,1.0551035515599871,-0.9127333797957755,-1.901557032126865,1.947538889035419,-0.6229957097410526,-0.4314148408707519,-0.8961608318437877,0.21642460863190272,-0.015311080246435658,-0.9827874331550802,-0.5993533287175983,-0.7602322547803283,0.294151752825391,-0.7713392149392315,-0.5769462569124914,-0.7009916066761283,0.3653284863739275,-0.5186898050453634,-0.4568205851196203,-0.6180897755508369,-0.4765517829787466,undefined,1491594538165
903d185fccf839df,-0.3812352584939568,-0.5328998476119259,1.3560067937044118,1.3496520724220402,-0.9910281046283315,-1.9196808426364083,1.9710177963568078,-0.5100188956532952,-0.40664704354432174,-0.8922276528552662,0.2686792070456615,-0.014411914247956346,-0.9436204879679144,-0.5817624988627189,-0.7286532486851507,0.22949233004464356,-0.7885315429573629,-0.554426307961009,-0.7035804264435823,0.37992621098768076,-0.5061419579976212,-0.4348456122088028,-0.6229848582887536,-0.49987840909663495,undefined,1491594539874
903d185fccf839df,-0.2911442905937037,-0.545227162572475,0.9987204851120931,0.9294544862930867,-1.086901088636395,-1.9063459479913998,2.007290708527812,-0.28521307960460157,-0.36748691221745305,-0.7162476470697179,0.27147112008566077,0.00018077377602236568,-0.8913978943850268,-0.5623199802138754,-0.7749690909159512,0.0072255130060163274,-0.8390193464741483,-0.573197154078302,-0.7406215430228483,0.2545366709301773,-0.5507516172000141,-0.45085263006261617,-0.5976087389733886,-0.5449565846165149,undefined,1491594541381
903d185fccf839df,-0.2246156522793476,-0.6051027654508374,1.2341471099080938,1.2149584327919871,-1.0213400551650536,-1.9071145963597618,2.009478711294697,-0.2655884122308363,-0.37657790946991926,-0.41328158935083786,0.19910280588701929,-0.005915361713450629,-0.8913978943850268,-0.5363966220154175,-0.8370744141076393,0.0577406190414891,-0.8579465875697918,-0.5673328487700936,-0.800745138947306,0.24497423704846047,-0.5646580734409069,-0.4741355931225982,-0.6228004366890312,-0.560327515026669,undefined,1491594542905
903d185fccf839df,-0.17471907002735132,-0.6485419337678048,1.6954290537109113,1.7761414294161098,-0.9530738856671926,-1.8911080654150556,1.9235708314609006,-0.7862802620751551,-0.30559546508796664,-0.2319391099011916,0.12100142769722956,0.0804564498385054,-0.7869527072192514,-0.45584907898297006,-0.8107586174143161,0.20322445455559823,-0.8936122261266338,-0.6049188692739483,-0.8055589444206168,0.3242762337892981,-0.5617680413326991,-0.4675086018802923,-0.6307078181018738,-0.615792132964962,undefined,1491594544386
903d185fccf839df,-0.22600170008297307,-0.5446401621883499,1.805805051173634,1.7394422999930113,-0.8572626138768482,-1.8575926423278672,1.7834363602108105,-1.6285375184076218,-0.37809743272705315,-0.40324339609025106,0.08932231054977108,-0.0492872696845296,-0.7738970588235294,-0.4604782880171059,-0.8265481351863725,0.08804984094521337,-0.8502772666008293,-0.6036396144905518,-0.8383110159385967,0.3173007400887882,-0.5713902198473486,-0.4500776661552949,-0.6606372449686788,-0.5653858381508952,undefined,1491594545881
903d185fccf839df,-0.4491500481281676,-0.4965048738864114,1.857484053975832,1.6796626110424044,-0.869430591850934,-1.8412413830384353,1.753877344400788,-1.7260179997241516,-0.3692534574085282,-0.39299162154052736,-0.06524400044801838,-0.0815878195772733,-0.6868594028520499,-0.4632557629295666,-0.8076007197496918,0.21332745315091556,-0.8188380094540046,-0.6094279262076079,-0.8103867435279151,0.42841592413890495,-0.5429328524187674,-0.4621952606024742,-0.6488686243727768,-0.5296237290606519,undefined,1491594547392
903d185fccf839df,-0.36598911221358355,-0.39201614576481975,1.9608420595802274,2.0013792998315276,-0.8203678170454565,-1.8503067817717178,1.8419548162821788,-1.1062633056739177,-0.374140472531326,-0.38024341638633413,-0.19318646509509196,-0.03957952302884642,-0.7608414104278075,-0.5021407743257045,-0.724442743006431,0.19110072622349836,-0.7889779613958944,-0.5914107001996779,-0.7581625479151463,0.5937952277877662,-0.4925200811647189,-0.44652009590557046,-0.689854165626825,-0.4909895337548666,undefined,1491594548975
903d185fccf839df,-0.20798345819534883,-0.3972992369059237,1.725415688921176,1.7451362042381926,-0.8726705887246523,-1.8855132329098017,1.8915319183173123,-0.8281661085974077,-0.3584097202337374,-0.4658446948846183,-0.27643259407149917,-0.0042948490748236385,-0.9523242535650625,-0.5688008456650391,-0.6907584619851922,0.294151752825391,-0.7581326185304652,-0.6063184493172786,-0.7627174721690039,0.5334179232736506,-0.5124415380096159,-0.4375836733783088,-0.6624729382307469,-0.47679102109505694,undefined,1491594550376
903d185fccf839df,-0.3160925989724067,-0.4518917340291859,1.3483511722399812,1.363751793792835,-0.9927046753021375,-1.8682722047710008,2.0269537746897774,-0.047934161632719095,-0.38145941698922997,-0.5345135850713574,0.0162072396903753,-0.032435561115262176,-0.9349167223707665,-0.39844738038419625,-0.6844426666559438,0.23555420834305427,-0.7157223547748492,-0.5010269260039835,-0.7257043420441436,0.46404792360334624,-0.47386938454888505,-0.4031874252817932,-0.6551278915858323,-0.4459356231362067,undefined,1491594551889
903d185fccf839df,-0.36737516001720905,-0.5375959822108932,1.7049993429522978,1.5486445731968614,-1.061361706944934,-1.8263039727828287,1.979312211670213,-0.2946492195038762,-0.5440703466574942,-0.5399025094195329,-0.1463276295427546,0.06587075234411437,-0.9740836675579323,-0.544729124457447,-0.7160216653888876,0.2375747119620645,-0.7388646536330054,-0.526833670952299,-0.7518164389574371,0.5024362463777629,-0.4893249767724729,-0.4209336286534458,-0.6194696139362276,-0.4664617738361298,undefined,1491594553385
903d185fccf839df,-0.2079835272061683,-0.34798993322173866,1.4714871317963034,1.3574727804332225,-1.0083286507760068,-1.8208512236764218,1.885141493543729,-0.8614388326643877,-0.5460308781700307,-0.3126269552125093,-0.31173638346089694,0.04615645232498318,-0.9175091911764707,-0.557690803556676,-0.7160216653888876,0.3042547796854299,-0.7427453338445806,-0.514693417319242,-0.7633052025086969,0.5080258815901217,-0.486803909313501,-0.43151263303443727,-0.5409094081978991,-0.5746482743014966,undefined,1491594554870
903d185fccf839df,0.02902502283200322,-0.33918470824991787,1.704361459209245,1.6302734956340623,-0.8329266579206748,-1.8193255713032956,1.7888485104042988,-1.3790624268434488,-0.6079687968293209,0.3773521587147587,-0.4885075018791954,0.04752340690935441,-0.7956564728163993,-0.5262125214348456,-0.7349690587388668,0.4962126857322698,-0.7381036473396019,-0.4962645516775748,-0.746533846372405,0.5613968904779312,-0.4543250926687729,-0.449455182783338,-0.5436281791317814,-0.6639577906048986,undefined,1491594556379
903d185fccf839df,-0.047205777580682624,-0.23763098204895233,1.6207816616937256,1.5281627674998828,-0.8128284044471268,-1.807083089035562,1.8818016305746368,-0.7512426927259457,-0.5706928839230296,0.3902721516830849,-0.5168987356022069,0.013461715762473328,-0.9218610739750446,-0.5771333222055195,-0.7191795851402132,0.5608720519835741,-0.7706074636996887,-0.5681497958524142,-0.7411742896445964,0.4736565496846839,-0.49631357170236323,-0.4515348358726809,-0.5447163129906691,-0.7072332140100066,undefined,1491594557870
903d185fccf839df,-0.04304773768603537,-0.37264456314283695,1.5244421562215562,1.505739147152847,-0.7524410828537677,-1.8461607345867301,1.9944335931089168,-0.11622848606177275,-0.467825377541826,0.12224673944698185,-0.32482550440309116,0.0645316290687976,-0.847879066399287,-0.5428774745158065,-0.7107585148849035,0.5689544904304382,-0.7132718340284646,-0.5261750455074703,-0.70031291435725,0.4014840343836226,-0.4802235661308009,-0.4412256512243309,-0.46901877714058315,-0.6729047982532033,undefined,1491594559370
903d185fccf839df,-0.16085890253978405,-0.38438492156124937,1.5059397156187855,1.4188008563474614,-0.7643107726869753,-1.798648913993052,1.9993276615448494,-0.05189778491456008,-0.5146998753481921,-0.13897563018480769,-0.19960611370365813,-0.09062128111781856,-0.8174158868092692,-0.6252766998668308,-0.7254953436582927,0.48408898566489145,-0.6838861220874347,-0.5564465156376139,-0.7014394008044049,0.3448177569317752,-0.5034846065788832,-0.40795845459559404,-0.5267017657918992,-0.5961262402596357,undefined,1491594560863
903d185fccf839df,-0.3396549285583037,-0.3051377799028927,1.5946230913526256,1.4251041006442258,-0.8660774560367631,-1.8015441596102297,1.958271130064581,-0.30175441025757016,-0.49263097261493405,-0.13608873333968985,-0.4138836160091314,-0.11672916396210699,-0.40398702094474154,-0.6234249851713176,-0.7507585617864555,0.42145015129731883,-0.7219969439174244,-0.5570481443844896,-0.7240390999544234,0.42524383716117214,-0.4952900340868357,-0.39754055804654254,-0.5791306517926326,-0.5644037204832351,undefined,1491594562393
903d185fccf839df,-0.27174013892409293,-0.38262387656688523,1.7719906052311543,1.6498995744005258,-0.7056822973831356,-1.7979897404251521,1.9400255436823481,-0.3364885381700419,-0.45941475108138247,-0.2927359938694776,-0.5446159917197125,-0.05198678419894288,-0.5127840909090909,-0.626202524837651,-0.8107586026898486,0.4133676845857333,-0.6728681985124696,-0.5661612502698167,-0.7366193664000539,0.4707924399221217,-0.4995001216137175,-0.4047133457914332,-0.48731424205991347,-0.5417207140578318,undefined,1491594563955
