UUID,iqrAccX,iqrAccY,iqrAccZ,iqrAccXYZ,meanAccX,meanAccY,meanAccZ,meanAccXYZ, covarianceAccXY, covarianceAccXZ, covarianceAccYZ,pressureDerivative, pressureIQR, iqrGyroX, iqrGyroY, iqrGyroZ, iqrGyroMagnitude, meanGyroX, meanGyroY, meanGyroZ, meanGyroMagnitude, covarianceGyroXY, covarianceGyroXZ, covarianceGyroYZ, class, timestamp 
903d185fccf839df,-0.8857446166256366,-0.6726095486907816,-0.5404823131222768,-0.5507678554430885,-1.02990803481654,-1.8085644856746366,1.929156562824534,-0.7643898209295222,-0.09844941784902074,-0.6812240710273385,0.11680414949160813,-0.10937636551905551,-0.9632039605614974,-1.000239419839744,-1.1876011800389044,-0.815161885278178,-1.1312916024016848,-1.0402051153319412,-1.0792239349159596,-0.8550137062218159,-1.0989080212688187,-0.4728664841945534,-0.6404593238550281,-0.4977488679397397,undefined,1493658833462
903d185fccf839df,-0.9883097042098316,-0.6714355186945389,-0.4929505711977195,-0.47305901375741866,-1.0253599669040512,-1.7922360140701068,1.9377731819734725,-0.6959896753312912,-0.12196541636100955,-0.6790934136898671,0.11693306291793944,-0.14751457599821163,-0.9697317847593583,-1.0817127943183988,-1.1897064549649656,-0.6737193537816655,-1.1416039231855502,-1.0572177046941027,-1.10666562365284,-0.7469876870166008,-1.0890241066214637,-0.46806181542928676,-0.6546405324974631,-0.5212078192404603,undefined,1493658833643
903d185fccf839df,-0.5822073937676993,-0.22002048826332218,-0.7143399415923188,-0.6313522114567605,-0.8125162491840578,-1.6572324628111241,1.888171958867943,-0.7147075322310757,0.0057956521625958345,-0.8341694953316765,-0.002723674929350996,-0.1217176860279785,-0.6868594028520499,-0.9919069173977144,-1.1981275141769248,-0.7707085162175082,-1.1002304393896833,-1.031200937979189,-1.1478770590926266,-0.7740775936613504,-1.1007781505911933,-0.4696375190876403,-0.616910038320052,-0.5112713672383227,undefined,1493658834935
903d185fccf839df,-0.5032046012639917,-0.43075916486882365,-0.6652129820362308,-0.6340189734538357,-0.874439734232732,-1.674266377830109,1.8463045281023382,-1.032580072805699,0.01679110702984924,-0.7178947188803187,0.03241060419258852,-0.07825138418958451,-0.691211285650624,-0.9669094035962384,-1.1897064623271993,-0.6535132576645054,-1.1060769198919362,-1.0072578158184338,-1.1475311849955616,-0.7158288733402413,-1.0814638330924544,-0.470865476567784,-0.6066352821541185,-0.5148500740615427,undefined,1493658835165
903d185fccf839df,-0.40133258933972416,-0.3884940265480991,-0.25433401941255623,-0.3382959257689697,-0.9842849254104759,-1.6743160468377916,1.8206503744956983,-1.2040259677804477,-0.13573124267330297,-0.7847921918813807,0.008299586132107198,-0.017705972840955368,-0.7695451760249554,-0.6974917501703296,-1.1760222268434382,-0.501967734638856,-0.9314813378062028,-0.8490447991566128,-1.1339626222817243,-0.575651912746272,-0.9683873522811998,-0.46557758135610783,-0.5471650917226555,-0.4386657737341169,undefined,1493658836455
903d185fccf839df,-0.36044505902072055,-0.394657713256366,-0.23040855044603967,-0.29599413567952704,-0.9025753995187352,-1.672582532680113,1.827731511678788,-1.1386754553180396,-0.13517877871491246,-0.7675589277062651,0.009316256118736932,-0.017705972840955368,-0.7695451760249554,-0.6780492444722607,-1.1812853920718898,-0.5464210754348042,-0.9649356032684149,-0.8433518514420384,-1.1340558459031889,-0.5863108363321207,-0.9664523753958225,-0.4699295742220229,-0.5563419379543425,-0.4414493821481196,undefined,1493658836639
903d185fccf839df,-0.4117276200655228,-0.394951249983419,-0.11078145975040635,-0.1035433634482917,-0.8187766081900976,-1.6418843769216114,1.8461968090821308,-0.9327909307640608,-0.052134402255582094,-0.6011799659685816,0.08906944910582688,0.03962194073023677,-0.7129706996434938,-0.7095276010610447,-1.0633905115688271,-0.5039883301182112,-0.8499051812490965,-0.8116488538238917,-1.0406310648982526,-0.5233224813176032,-0.9050028754453829,-0.45418302935060245,-0.588599083494252,-0.3690045048021122,undefined,1493658838012
903d185fccf839df,-0.4089555934690913,-0.3958317724806011,-0.10376321375512973,-0.12502036135313038,-0.8178201883636955,-1.6377628314913062,1.854165174199516,-0.8771389452548799,-0.057262505891846484,-0.6062272827426062,0.09422643484958633,0.03063574957370829,-0.6955631684491979,-0.7243409301019141,-1.0612852403238828,-0.5201531646148569,-0.8564156085976382,-0.8162491996113447,-1.044755809524485,-0.5199264301786068,-0.907961031532178,-0.45272644437087745,-0.5910859476278936,-0.37246263823344045,undefined,1493658838139
903d185fccf839df,-0.3223296588143776,-0.3271509007884294,-0.021459691999614606,-0.02442271305310745,-0.866778590734215,-1.7140792835303398,1.8936535285966727,-0.7206314698713545,-0.07542177349013374,-0.6074565637714772,0.06708723188780524,0.024231835012797853,-0.6520443404634582,-0.692862557324662,-1.0549694486757513,-0.5080294504151178,-0.9143493823113168,-0.8033355009897246,-1.0530218489366077,-0.4797268148719507,-0.8983213171631701,-0.45363710674523117,-0.6095601797339107,-0.3896677667470979,undefined,1493658839472
903d185fccf839df,-0.3445058888385345,-0.33037952712008556,-0.0169937433873972,-0.0071365989482915435,-0.8674554154988983,-1.7234152031008105,1.9013629041103963,-0.6820879664936227,-0.08038274978646037,-0.6062364976237589,0.062063633033550274,0.024231835012797853,-0.6520443404634582,-0.6984175783788434,-1.0591799727600553,-0.5060088478695822,-0.9222386335240391,-0.8101790052330025,-1.0541477463016995,-0.4850087237957044,-0.9028237696607158,-0.4537227247495204,-0.6095034305300023,-0.39266388786199785,undefined,1493658839674
903d185fccf839df,-0.3597520178662029,-0.3356626474891819,0.05446372164062607,0.047046131041245554,-0.8833683944256564,-1.7486279769465223,1.882927451288938,-0.84678058261447,-0.09871480449419255,-0.5795734935654037,0.08576745656921218,-0.10971071470574972,-0.6041736296791445,-0.6965659025356539,-1.0507589098669794,-0.5019676710432326,-0.9040039883339258,-0.7901207634308944,-1.0531821887102115,-0.4631919293276831,-0.889631843078053,-0.44831528113860053,-0.5982672691141924,-0.38082988163233095,undefined,1493658841023
903d185fccf839df,-0.35351495802423205,-0.34211981246851714,0.1112468109350434,0.08711867735594407,-0.872587938889325,-1.7511855225912114,1.8728556313576443,-0.9131738529983917,-0.10989862970458174,-0.5920837117305788,0.09097985948151714,-0.11036671978571543,-0.2212079434046346,-0.6965658960602666,-1.0507589135480964,-0.5080294504151178,-0.9139312369250613,-0.7944005425845738,-1.0547963070027,-0.46530229900347525,-0.8926274796233985,-0.4478860436993115,-0.598470967633683,-0.3822868456911459,undefined,1493658841212
903d185fccf839df,-0.3133205723759752,-0.3292054825098466,0.1386808946252994,0.1730831821989504,-0.725482269589596,-1.740129109138464,1.8811704913611453,-0.7846745930735815,-0.11096742993541217,-0.4092386497509439,0.09524981639064069,-0.2052647018223774,0.205276570855615,-0.6956400710894464,-1.036022051644655,-0.33829846914874595,-0.867661563599359,-0.7942395356453313,-1.041532796403298,-0.27980347352596346,-0.8486124957000266,-0.44723238358063844,-0.574004169089496,-0.3755920129111456,undefined,1493658842514
903d185fccf839df,-0.3133205723759752,-0.3491639924459738,0.14059505412835646,0.19105692945134975,-0.7295554057528649,-1.7434063485462936,1.8825195821092782,-0.7827640814712691,-0.11201227576518442,-0.40665516905899135,0.09585104709589938,-0.20468199070184476,0.21398033645276296,-0.7030467485606556,-1.0297062563154065,-0.33829846914874595,-0.8711365099308945,-0.796363755347773,-1.0364023947237815,-0.2795481382558385,-0.8466398036655204,-0.4483593139255559,-0.5754712953418232,-0.3866348692518843,undefined,1493658842651
903d185fccf839df,-0.23708984097410885,-0.3139430633306982,0.2905282301796796,0.3590597042440049,-0.6408515565096373,-1.7499608274090674,1.8703988038037898,-0.8174801343054239,-0.14363189398233894,-0.4682063860834861,0.06966734696372724,-0.32674855872833886,0.1487020944741533,-0.689159257441381,-1.0318115128358833,-0.24130926431582086,-0.8543002033785727,-0.7696762141068291,-1.0277925095526588,-0.2334743141781819,-0.8240607535658785,-0.4467807135337705,-0.5659318632246044,-0.39579646787730266,undefined,1493658843989
903d185fccf839df,-0.2357038276758931,-0.30807291334948433,0.2905282301796796,0.3590597042440049,-0.6300104311069027,-1.7523529560790125,1.8697360933309515,-0.8206330592471351,-0.14542638269846667,-0.4767127007979808,0.06896918336039744,-0.32674855872833886,0.1487020944741533,-0.6910109332845705,-1.0297062452720558,-0.2534328795890346,-0.8750162500798666,-0.7690879592275521,-1.0302674637388554,-0.23874925769789082,-0.8256105955195565,-0.44745490541804916,-0.5675447715062674,-0.39530396560910597,undefined,1493658844175
903d185fccf839df,0.04149910801053526,-0.42665005988197396,0.4487546573015366,0.5614647682030411,-0.5058414932736809,-1.781403226592986,1.871661110513862,-0.7829980189605582,-0.25249194462494445,-0.2044225624731302,0.060942857345975016,-0.1334836903625913,0.1878690396613191,-0.609537519953592,-1.023390464667275,-0.09986671868694759,-0.7971887795470107,-0.7235006222038612,-1.0099607617225705,-0.17587869298120484,-0.7875340653785742,-0.4387460686407773,-0.5195036976255465,-0.391584371505234,undefined,1493658845505
903d185fccf839df,0.03595505481767225,-0.3520990382085884,0.45322060591375396,0.5687557480130242,-0.49369408472115817,-1.774958221624168,1.861510060764014,-0.8372635490260132,-0.266376037366445,-0.2156377953428995,0.05320473780361666,-0.12588430658347535,0.11823891488413549,-0.6021308619085445,-1.0181272920765896,-0.10794914300145084,-0.8058796096370032,-0.7220351451232565,-1.0126651837613703,-0.17762209498626402,-0.7879835963837222,-0.4400494522178799,-0.5212490965056089,-0.3921524968055024,undefined,1493658845643
903d185fccf839df,0.05397326219988676,-0.3550341131991953,0.5572167493981517,0.5820239084210631,-0.3934085374077802,-1.7826144297214226,1.914003618768538,-0.4558386790211151,-0.23485363354080863,-0.3196983409718985,0.028281328529843035,-0.11239564953861629,-0.8304715352049912,-0.6095375329043665,-1.0265483549696655,0.029452126874547364,-0.8005978386804634,-0.7212342779527925,-0.9986813635837856,-0.07768251096787868,-0.7659303313298441,-0.4358704875566962,-0.5127522092547947,-0.3712393209556771,undefined,1493658846984
903d185fccf839df,0.038727115919513486,-0.44015140483876586,0.6401584090336689,0.6289435272926717,-0.3649994427996895,-1.7958235448026514,1.9109688224289254,-0.4881671166187613,-0.2029940518432184,-0.30586602046086325,0.016772318657705093,-0.08577716800084471,-0.8348234180035651,-0.5984275425991017,-1.0254957322311025,0.0860291677378739,-0.7914769247267894,-0.718636910098802,-0.994868926736407,-0.05943987905780155,-0.7600708493624556,-0.4302749340731225,-0.5107319748705945,-0.36249016262863276,undefined,1493658847156
903d185fccf839df,0.047043195708808,-0.4912217973593036,0.6733347170961467,0.6381452129814019,-0.3784428479187309,-1.8205041640244128,1.942487046795093,-0.32467537020860104,-0.2074259739774317,-0.34047935890111386,0.02521756576497206,0.0009541266369452323,-0.843527183600713,-0.5984275166975526,-0.9939167482226262,0.17897719574444926,-0.7187712515011758,-0.7069396431424134,-0.9766688838396603,0.05462259998829826,-0.7252437263839185,-0.422425534692476,-0.49145376757491355,-0.3309057009134492,undefined,1493658848654
903d185fccf839df,0.05397326219988676,-0.4970919181125251,0.6822668684575309,0.6498312279763796,-0.38921197248794753,-1.826616087703079,1.9356390322906283,-0.3814753944357853,-0.2061076046919772,-0.324543758286611,0.026310906041702595,0.0009541266369452323,-0.843527183600713,-0.5984275166975526,-0.9918114806587988,0.17897719574444926,-0.7173109555353631,-0.7079766435319511,-0.9777434097984576,0.05058432753186315,-0.7269433339000859,-0.42210319469121377,-0.4909658726425738,-0.3301747207185556,undefined,1493658848727
903d185fccf839df,0.07060542177847579,-0.5299647580073228,0.6446243576458863,0.6260188633439959,-0.4172919218900517,-1.8429487129011817,1.8677847752327195,-0.8608790308904909,-0.2598087121274693,-0.20378224583555696,-0.05709995964606652,0.0074063422868609055,-0.5475991532976827,-0.5956500353097045,-0.9991798987266103,0.20120378134825875,-0.7382201085735838,-0.7033323603391796,-0.978382937282503,0.06717507901979503,-0.7240887492529597,-0.4150333536084034,-0.47809567624482313,-0.33165316433224123,undefined,1493658849998
903d185fccf839df,0.09555379916799828,-0.5252686380223517,0.7269276252644521,0.6812057653387824,-0.38620854493966933,-1.8425178033491456,1.8925154721453687,-0.6889693706183396,-0.2673417130840816,-0.15825321163809122,-0.05569277230462366,0.0074063422868609055,-0.5475991532976827,-0.5965758538051376,-0.9918114917021494,0.20120378134825875,-0.7414525518436464,-0.6975444115388933,-0.9758131321594724,0.07073107307727357,-0.720675113237999,-0.4119115112677373,-0.47262623826928796,-0.3315834350011652,undefined,1493658850179
903d185fccf839df,0.06921940848026004,-0.4935698281237968,0.7090633225416836,0.6953739027722224,-0.3996313812132976,-1.8270819345083142,1.8451500322043564,-0.9856228911726752,-0.2823123176123062,-0.04054282538953198,-0.047457157187798,-0.11697679106776851,-0.2168560606060606,-0.6039825442271214,-1.0181272994388233,0.20120378134825875,-0.7486030681998582,-0.6989440814997837,-0.9797795353722201,0.07525257610514795,-0.721228067482382,-0.415386203486314,-0.4802939592422211,-0.342618272708492,undefined,1493658851573
903d185fccf839df,0.06228934198918128,-0.492395798127554,0.7090633225416836,0.6953739027722224,-0.3898188265626831,-1.8237744147881498,1.8432697201090456,-0.9924660789398342,-0.2852456170456541,-0.03467955294191807,-0.04631198900630337,-0.11697679106776851,-0.2168560606060606,-0.6039825442271214,-1.0254957359122192,0.19716256212482675,-0.7486030681998582,-0.6971201937206948,-0.9817386424543919,0.08127336853042988,-0.7200265499983896,-0.4152895211041372,-0.4811456442248918,-0.34223506234977286,undefined,1493658851679
903d185fccf839df,0.031797118439254195,-0.4448474955957446,0.9476796201898975,0.841418954037311,-0.272387021868069,-1.7990029552826476,1.8569447054526567,-0.8330992796013107,-0.38894063961960773,0.09513127201935549,-0.091702839479586,-0.21693450015315704,-0.2516711229946524,-0.619721672337262,-0.9876009602556115,0.1749359623886565,-0.7623997949049324,-0.6467162954961688,-0.9742450578647783,0.146716760694399,-0.6826622063130018,-0.4171042617292287,-0.49545254854562615,-0.3367184669834424,undefined,1493658853037
903d185fccf839df,0.01655090314806145,-0.44426048059762324,0.946403852703792,0.8485571772393795,-0.2718521658861374,-1.7946798870913467,1.8690996696318896,-0.7464527069634506,-0.4001035527108207,0.06543386619880412,-0.082973339098248,-0.2303973765199794,-0.16028158422459893,-0.6187958473664418,-0.986548319111464,0.15472988040385724,-0.7685592885399176,-0.6451647242841344,-0.9710545121050136,0.15589423444963188,-0.679175941026826,-0.416615218240306,-0.49855686689132295,-0.3373889246692948,undefined,1493658853263
903d185fccf839df,-0.033345644598525105,-0.3984732815161627,1.0114807013426421,0.9741287768010513,-0.4035605161576476,-1.8135793351637715,1.8519138814752452,-0.9360549391115764,-0.39357085540697984,-0.058285149512972555,-0.06708235098287656,-0.07316758684716936,0.057312555704099835,-0.6206475361604059,-0.9749693401481794,0.07188496405148534,-0.7524784985037645,-0.6181103884956761,-0.9596776975461317,0.22557219987868143,-0.6500390216124331,-0.4266556482257483,-0.5140183308818859,-0.3583080594266525,undefined,1493658854475
903d185fccf839df,-0.0028533520377785515,-0.43780337407427267,1.1601373474970114,1.1523084979690528,-0.41320850083995536,-1.8225049799009674,1.8337103640920176,-1.0693359407239993,-0.3877965689045984,-0.024521693218951215,-0.055034999714628025,-0.07316758684716936,0.057312555704099835,-0.6160183854047555,-0.9781272378128036,0.08198793438208113,-0.7524784985037645,-0.6174960930198723,-0.9586631600118328,0.22418633997698809,-0.6496953234400268,-0.4262726611054981,-0.5138146406751903,-0.3568252888906114,undefined,1493658854642
903d185fccf839df,-0.13175272679348246,-0.4994399781050107,1.3432468316108124,1.4290007455388052,-0.4722998309881297,-1.8253093838993355,1.8601478013575292,-0.9462901745567264,-0.3706930542161948,-0.001872372093305029,-0.016952356537073728,-0.1595793252292336,-0.7042669340463459,-0.5799108489210785,-0.9328640109583323,0.17897716747972772,-0.7471577187277941,-0.602809996836857,-0.9464467281049304,0.26212811016244203,-0.631806434917572,-0.4220653815780488,-0.49701878182633297,-0.36532102223357904,undefined,1493658855985
903d185fccf839df,-0.14977089967028723,-0.485351588922105,1.357283069464416,1.4414737291221429,-0.43969417210037304,-1.8394199153316444,1.857704710273476,-0.9696088996315841,-0.3784099145755286,0.027151571646838776,-0.012940664403540553,-0.15253536612855836,-0.7477857620320856,-0.5799108489210785,-0.9223376952258965,0.1809977841576241,-0.7471577187277941,-0.604082918676576,-0.9435290577797271,0.2730610063619938,-0.6308382146983665,-0.419444879126434,-0.49010576236262876,-0.36452937183087475,undefined,1493658856164
903d185fccf839df,-0.041661724387819614,-0.49709188888453276,1.6099353508292844,1.6314126105632096,-0.4894460922423743,-1.8371232858261632,1.8393249955344233,-1.1101287687333963,-0.3979781251971117,0.0480778116446887,0.026886033588232897,-0.044152789718126036,-0.6650999888591801,-0.5456549623790419,-0.9328640109583323,0.16483285073445303,-0.7144426290897836,-0.5785991533741176,-0.9441237865146157,0.331513505599193,-0.6097764602145549,-0.4102559417258917,-0.4598201701059246,-0.36136596494208145,undefined,1493658857505
903d185fccf839df,-0.023643551511014837,-0.5064841580824673,1.547410545436544,1.6314126105632096,-0.4889318069943479,-1.8356605235701668,1.835727422301112,-1.132859719673851,-0.39723291780380265,0.057870219546789135,0.030631068883139233,-0.044152789718126036,-0.6650999888591801,-0.5373224858385613,-0.9223376952258965,0.15675046881703208,-0.7042457584961752,-0.5783901664708403,-0.9398417383314941,0.3380732437093311,-0.6066146442247687,-0.4117751466681124,-0.4643306464150932,-0.359214118510919,undefined,1493658857699
903d185fccf839df,-0.03611774020577608,-0.4947438288920472,1.6156778293384555,1.6328764771994464,-0.535330585192582,-1.8310556178815482,1.8245244488088816,-1.218196623053902,-0.3987268423958889,0.18232377320281587,0.06984847978093862,0.040158538849037154,-0.7042669340463459,-0.5308416333381724,-0.9265482229913176,0.2355542366077758,-0.7043103083526883,-0.5406838193062752,-0.9389391495204226,0.3671301097818306,-0.5831300827128699,-0.40795192985743595,-0.4854540853647308,-0.3515162900902545,undefined,1493658858987
903d185fccf839df,-0.06383800617009112,-0.49415681389392585,1.74455575913005,1.6721728596760719,-0.526454028062231,-1.831649573913361,1.8504332966257226,-1.0442667069578955,-0.40571776516168395,0.21484534016437828,0.05046795925163818,0.010669509528951423,-0.7042669340463459,-0.5271382946025677,-0.9170745447219124,0.2416161149061865,-0.7031642620755165,-0.5297974891746684,-0.9357206165660876,0.37914089674529106,-0.5756348658227356,-0.40272269930937116,-0.47645453421925726,-0.34702583452361613,undefined,1493658859163
903d185fccf839df,-0.026415509096626873,-0.4976789038826542,1.7860265889478086,1.9136353223762852,-0.48879809090632004,-1.8387677290573654,1.8634876520182404,-0.9533821043556224,-0.4182549963229553,0.2025717341545673,0.044148331469827634,-0.010791702238412653,-0.7477857620320856,-0.515102466375708,-0.8823376409621106,0.3062753680986048,-0.6830587662834674,-0.5281699227990686,-0.922629583256781,0.4286622965466592,-0.5613640915860939,-0.4100886690487414,-0.48171415425401504,-0.3519098366599115,undefined,1493658861854
903d185fccf839df,-0.026415509096626873,-0.4976789038826542,1.7860265889478086,1.9136353223762852,-0.48879809090632004,-1.8387677290573654,1.8634876520182404,-0.9533821043556224,-0.4182549963229553,0.2025717341545673,0.044148331469827634,-0.010791702238412653,-0.7477857620320856,-0.515102466375708,-0.8823376409621106,0.3062753680986048,-0.6830587662834674,-0.5281699227990686,-0.922629583256781,0.4286622965466592,-0.5613640915860939,-0.4100886690487414,-0.48171415425401504,-0.3519098366599115,undefined,1493658861877
903d185fccf839df,-0.026415509096626873,-0.4953308438901686,1.7860265889478086,1.9136353223762852,-0.4896106609503532,-1.8421031996499562,1.864121436224261,-0.9518530086898098,-0.4085507495107997,0.20006456184880705,0.040942862830165634,-0.029471054623149067,-0.7477857620320856,-0.515102466375708,-0.8739165854312685,0.30021354632963715,-0.6834747023910017,-0.5274732989613355,-0.9203696132885607,0.43434432276825347,-0.5598225783321834,-0.41076361684366297,-0.4832449728652391,-0.3552789611820399,undefined,1493658861989
903d185fccf839df,-0.03611774020577608,-0.5047230838601108,1.8747104729555477,2.0691259192339135,-0.5037843511292742,-1.840537951026027,1.8266335527580084,-1.1966381422044856,-0.4060984435039721,0.1448001502510421,0.045856939904537625,-0.029471054623149067,-0.7477857620320856,-0.5076958148060479,-0.8760218529950959,0.29213107961805157,-0.6689344427867016,-0.5185628470909751,-0.919481018337808,0.4453234142772195,-0.5537056754621015,-0.4127054782326125,-0.48872876373694357,-0.35875537843166505,undefined,1493658862143
903d185fccf839df,-0.12066455139693696,-0.5264426680185945,2.0042267947640937,2.1186786980243215,-0.4970266467126196,-1.8432934418982654,1.886277553974719,-0.8092127719852358,-0.43511714125109474,0.1680519935200498,0.030445430913957905,-0.03293134166523872,-0.025373217468805696,-0.49473408390372065,-0.8697060429413799,0.2618220273026565,-0.7232900293925363,-0.5043200579176838,-0.9089368241631436,0.49295080523484514,-0.5349117741222376,-0.41219100128296365,-0.5029088994938423,-0.36472125603461286,undefined,1493658863496
903d185fccf839df,-0.027801522394842623,-0.5317258322296793,2.1701093516242804,2.210944855960771,-0.486411807192874,-1.8534186451375452,1.8643239337097668,-0.9666585987250719,-0.42098243091235105,0.19220318496458283,0.029589122108033727,-0.03293134166523872,-0.025373217468805696,-0.5012149234533352,-0.8718112957807397,0.261821999037935,-0.730138839021814,-0.49953235265260204,-0.9097764413949403,0.4796465481403944,-0.5345033092627701,-0.4167731954693139,-0.5143901221419516,-0.36948782816832576,undefined,1493658863649
903d185fccf839df,0.19811888675219314,-0.5264426972465869,2.0042267947640937,2.049244641079325,-0.4309101848930165,-1.849836274239224,1.88562799932809,-0.7898666462460147,-0.39992943391919394,0.17424556221317547,0.06090603100667186,-0.08799668967987637,-0.3735238413547237,-0.491956634892809,-0.8718113105052073,0.3103166862485621,-0.734212992072747,-0.4746818822217192,-0.90666286036519,0.5083954452635812,-0.5205919517197947,-0.4193318224326547,-0.484902789927027,-0.34577730854470917,undefined,1493658864980
903d185fccf839df,0.13852017690727686,-0.5352479514464,2.003588402747142,2.0053876520811706,-0.46977983563581477,-1.8464262679771648,1.8573681061672274,-0.9873650073662642,-0.3788295058536086,0.09867473253594279,0.07504297170268426,-0.11494217566072944,-0.3909313725490196,-0.47806913082275976,-0.8718113105052073,0.30223419127225504,-0.730138839021814,-0.47469454772150743,-0.906893755007896,0.490918210072453,-0.5224905880700065,-0.4204526256684023,-0.49075648609636335,-0.3449163785379255,undefined,1493658865189
903d185fccf839df,0.02902509184282269,-0.5428790879659934,1.8102709997858515,1.792155242120266,-0.45095701312421677,-1.8348872164144052,1.8657755988394826,-0.9156552643753058,-0.3761468904764199,0.12946518431820644,0.01648138101897714,-0.07435854362256915,-0.8174158868092692,-0.5002891114332895,-0.8918113339559833,0.30829598477650116,-0.6873496353385155,-0.5108239916778619,-0.9118335033155526,0.4686982529299791,-0.5444383892479407,-0.4179951390332204,-0.46436431473861367,-0.34574792504157736,undefined,1493658866545
903d185fccf839df,0.0345691450356857,-0.5428790879659934,1.8102709997858515,1.792155242120266,-0.47029412318844155,-1.8356139390395045,1.8664856468221886,-0.9148721828550227,-0.36177599376312325,0.06115195514200504,0.012416959190850375,-0.07435854362256915,-0.8174158868092692,-0.5076958148060479,-0.8918113339559833,0.32041960004971487,-0.6873496353385155,-0.5151747245766534,-0.9098324152702475,0.475057810697361,-0.5445267205090665,-0.4217789402782734,-0.45190016047107195,-0.34862135712104736,undefined,1493658866738
903d185fccf839df,0.15376642670387933,-0.5781000463092613,1.7196737186859037,1.7412633542584133,-0.3739582790566685,-1.8185149946325252,1.8558612293063195,-0.9193348789552392,-0.3938897037801631,-0.10396622048071656,-0.0030748240860188217,-0.03939903883644417,-0.7826008244206774,-0.5271383464056658,-0.8707587024911119,0.32244021672761125,-0.7281001205701811,-0.520868041933692,-0.8953630104629179,0.4853285738504209,-0.5402024583930825,-0.42699333200327694,-0.4383000672595991,-0.3532738616161298,undefined,1493658867984
903d185fccf839df,0.15376642670387933,-0.5510973563956775,1.7196737186859037,1.740659264516999,-0.3664600050133899,-1.8106538123787148,1.8809758780484223,-0.7483432500492568,-0.3836956643642191,-0.06409092470937318,0.012516797245868898,-0.03939903883644417,-0.7826008244206774,-0.5271383464056658,-0.8707587024911119,0.3204196283144364,-0.7257352221996493,-0.5213366797768922,-0.8959017648576026,0.4727172472587715,-0.5434342267514998,-0.4267629938994588,-0.4337541058291694,-0.35247227517831586,undefined,1493658868183
903d185fccf839df,0.013778945562449414,-0.5446401914163421,1.4383105695968763,1.531868447841639,-0.482194667025961,-1.8199637817590073,1.8680267147944507,-0.8897233025428057,-0.3236499653252819,-0.17471217519029694,-0.006405593169780186,0.06125605617175223,-0.8174158868092692,-0.5030666381488484,-0.8781270911099882,0.26182211209682116,-0.710010615869738,-0.5144274388615743,-0.9131559012930577,0.342677372866656,-0.5732923777596916,-0.42881027769367347,-0.40873868759931925,-0.3696141791139859,undefined,1493658869485
903d185fccf839df,0.02348103864995968,-0.5640116571263556,1.3987538992821749,1.5247029987180287,-0.44864272288237117,-1.8225818465293417,1.8834137084780265,-0.7807083947132143,-0.31852094447386187,-0.3055688107833239,-0.001629424180025555,0.06368305213323093,-0.8043602384135473,-0.5151024922772571,-0.8918113339559833,0.2496984685588859,-0.7240990455782585,-0.5147060884498195,-0.921111275290425,0.33160589065808765,-0.5785589616617002,-0.4289332738329605,-0.405225009454237,-0.384077915255943,undefined,1493658869674
903d185fccf839df,0.10386974093565385,-0.6109729446600436,1.3987538992821749,1.4756177011139107,-0.41457649646753036,-1.8353553947434704,1.8993082531825638,-0.6983830733141315,-0.31122841921769784,-0.22218762175743928,0.013979713587101329,-0.05943537606275359,-0.8696384803921569,-0.5002891114332895,-0.8981271440096994,0.2699045505436852,-0.7433561002846605,-0.5082528185214304,-0.9141354553418598,0.33536311193932317,-0.5724796057844969,-0.4451225456134131,-0.42776227495944485,-0.40244614537503365,undefined,1493658871012
903d185fccf839df,0.008234823358766937,-0.6162560796431361,1.4032198478943922,1.3372818872355483,-0.42358676778541404,-1.843118749161241,1.8674586735799767,-0.9208674450230443,-0.3175538448025839,-0.2028489726295706,-0.025691814982340078,-0.05943537606275359,-0.8696384803921569,-0.5002891114332895,-0.896021876445872,0.28000760566844557,-0.7520766450418765,-0.5077398500392685,-0.9150800248530306,0.3316674852476114,-0.5728912322277062,-0.4444411034257661,-0.42608530003777695,-0.3998058639950136,undefined,1493658871185
903d185fccf839df,-0.027801522394842623,-0.5593155663693768,1.3872694505377312,1.3838057098348087,-0.4149982124287279,-1.842692498711911,1.892126258875825,-0.753397140573612,-0.3323983682706825,-0.2865514054999098,-0.003727998922157999,-0.022224635941526506,-0.6085255124777184,-0.4484424597902462,-0.8770744904581266,0.32446097472911534,-0.7737799968898349,-0.4997983389834088,-0.8957968144255808,0.3153297358810961,-0.5620278872112445,-0.4664374250576898,-0.44361007482906467,-0.4005233790019247,undefined,1493658872477
903d185fccf839df,-0.06245199287187537,-0.5593155663693768,1.3840795235485688,1.2958413472346002,-0.4419981680409389,-1.8432841253618026,1.8857200513532528,-0.8057747749343845,-0.3216604230068562,-0.3454047965904744,0.010125671480556035,-0.022224635941526506,-0.6085255124777184,-0.4484424597902462,-0.8770745125448279,0.330522853027526,-0.7767480833305317,-0.5001466508136888,-0.8912908683433419,0.32844921123978454,-0.5581916885563847,-0.46992817285896343,-0.44844204651034586,-0.39660938002618945,undefined,1493658872668
903d185fccf839df,-0.047205708569863156,-0.6039287354545947,1.357283069464416,1.2350254325812602,-0.4235456292223609,-1.836429174486349,1.8754874719346621,-0.8568154218040803,-0.25046554292241663,-0.26091506503239975,0.01698816873597172,-0.0955331053373183,-0.5301916221033868,-0.4632557629295666,-0.8833902931496088,0.3426464400360182,-0.7887796976049213,-0.49407969095899384,-0.8765765749045291,0.31999546413781843,-0.5516133073288364,-0.4703205814812078,-0.48013988613656855,-0.4220541618875568,undefined,1493658874008
903d185fccf839df,-0.03888962878056864,-0.5722298963280473,1.288377901819452,1.2313095420010614,-0.4172404979480428,-1.839687780056544,1.9030688778969471,-0.6765491873203916,-0.2526141558940048,-0.2659313653023785,0.006672670941861436,-0.08706743157503745,-0.5301916221033868,-0.45955243714473654,-0.8833902931496088,0.3426464400360182,-0.782963151897866,-0.49953235524929834,-0.8758838905359821,0.3192563389583313,-0.5542906705164853,-0.4693427278677539,-0.47383790191313224,-0.4233248010706046,undefined,1493658874146
903d185fccf839df,-0.00008125643052757771,-0.5505103413975561,1.105268417705651,1.0645372516816567,-0.44513530814032365,-1.8350269726520667,1.8996790586135033,-0.6944298792806365,-0.29849629582292875,-0.05409202183404079,0.005552376154007836,-0.04083111197284471,-0.8304715352049912,-0.49010499790194306,-0.8970745139089026,0.33052273996863984,-0.8002300278976964,-0.49426334661908156,-0.8693138851166652,0.32018024590050553,-0.5512546782658797,-0.47896957413868657,-0.4908892505309165,-0.42511871809405594,undefined,1493658875517
903d185fccf839df,0.015164958860665167,-0.5446401914163421,1.105268417705651,1.1586399054370724,-0.4686792685713547,-1.8367319758410836,1.9092883678023178,-0.6335074353104427,-0.2865898765357478,-0.12410301091308557,-0.006142924689435418,-0.04083111197284471,-0.8304715352049912,-0.49010499790194306,-0.8928639935057153,0.33658461826705055,-0.7965605338929886,-0.4923887952462802,-0.8682293794858338,0.3223360282091364,-0.5498960607447976,-0.47936989253186596,-0.4879799448038142,-0.4247243954337335,undefined,1493658875721
903d185fccf839df,-0.00839740523064156,-0.6150820496468934,1.3872694505377312,1.4310377131525942,-0.5378505827054596,-1.854231550745818,1.8826457985339888,-0.8509323558386437,-0.27603697385679465,-0.0882708421460674,-0.04689687531621614,-0.017870922013756733,-0.9175091911764707,-0.47158826537159615,-0.891811348680451,0.3285022363496296,-0.7782763502959287,-0.4843016257605374,-0.8558730114715049,0.3435704856103995,-0.5399394949398185,-0.4676454441188127,-0.47674844094150254,-0.4081255750171887,undefined,1493658877037
903d185fccf839df,0.02486705194817543,-0.6150820496468934,1.366853104568853,1.4040744371868166,-0.5235123198695312,-1.8557082885974931,1.9012069691882725,-0.7259895385256557,-0.26477155968458593,-0.14314826762046418,-0.04164080682079545,-0.013227405241069521,-0.9175091911764707,-0.4771432799503904,-0.8897060884788572,0.3183991529601477,-0.7805728464517957,-0.484472614924237,-0.8514020492540204,0.3529481385237057,-0.5370440591257207,-0.46536730189550973,-0.4810496570281154,-0.4087370141425064,undefined,1493658877252
903d185fccf839df,0.02486705194817543,-0.6520639945285408,1.5550666751748736,1.7275254037918462,-0.5085672006022532,-1.8648156142446586,1.874651189195614,-0.893592721193655,-0.2851261299722145,-0.11778636365865387,-0.08603971042368695,0.008150609792653125,-0.9175091911764707,-0.4586265603708181,-0.869706072390315,0.33456402985387573,-0.7778985008723937,-0.4933070714317121,-0.8442583059300539,0.3458802518619255,-0.5373698624777968,-0.4835700669311277,-0.49075408268130155,-0.4071211957498959,undefined,1493658878481
903d185fccf839df,0.04149921152676446,-0.6162560796431361,1.547410545436544,1.7791771578559006,-0.492984368930802,-1.8525777911901695,1.889291319219275,-0.7803030456838134,-0.305882853086185,-0.06374414674691267,-0.030444991937429493,0.006208628309436401,-0.9131573083778967,-0.4669591146159458,-0.8570744522828829,0.34466708497863613,-0.7970087364017481,-0.4995070234635155,-0.8416345019063535,0.32108875396643943,-0.5434821886273958,-0.4829102599370665,-0.5324754213817453,-0.40451634582615625,undefined,1493658878672
903d185fccf839df,-0.05829384946099891,-0.5980586147013731,1.9276652432438508,2.003804674392738,-0.5969727662977995,-1.85070741198905,1.9249909389490527,-0.5772297229728655,-0.3214055926960533,0.05807812772235038,-0.06352299820166224,-0.04404709173193697,-0.9436204879679144,-0.4558490984091319,-0.869706072390315,0.32244024499233276,-0.780255479429945,-0.5177522335502918,-0.8345327388909943,0.3812812778083152,-0.5429112544902102,-0.4694352186996108,-0.5018606001354422,-0.40650182318391914,undefined,1493658879996
903d185fccf839df,0.011006815449788706,-0.5528584013900416,2.0954622137440437,2.2756338676173464,-0.5742825202113494,-1.8444883435120363,1.905427810556316,-0.6908861594484692,-0.3070844466416191,0.0547778710737514,-0.05801775875161962,-0.04404709173193697,-0.9436204879679144,-0.4706624533515505,-0.8749692155320653,0.30021354632963715,-0.777958983274078,-0.5196584496913101,-0.8337910770237055,0.38023418367951534,-0.5440934574996981,-0.4712458474793253,-0.4973576583934853,-0.40186004325860325,undefined,1493658880170
903d185fccf839df,0.011006815449788706,-0.48182952816136904,1.8038908916705771,1.9866328495061116,-0.545832277605748,-1.8317171248981874,1.912018103273822,-0.6101918860256863,-0.2874269088559896,-0.022147090921151205,-0.07584896024333118,0.018010086014949005,-0.9566761363636364,-0.4780691049212107,-0.8876008135527961,0.22747182642563332,-0.7836189433077969,-0.5236798689984307,-0.8388847550788928,0.3665141691368942,-0.5500614228110522,-0.4627124463072092,-0.4952653424484201,-0.40429262863060533,undefined,1493658881484
903d185fccf839df,0.020708908537298974,-0.4830035581576118,1.9716878621707699,2.25846204273072,-0.5533614079419341,-1.8333079952445712,1.898674466881499,-0.7021913741991656,-0.28623578508744657,0.021532461817017935,-0.07015236992922098,0.018010086014949005,-0.9566761363636364,-0.4826982815784101,-0.8960218838081058,0.21736877130087293,-0.7858952033718168,-0.519360801665136,-0.8387028379349285,0.3621256120096924,-0.5487771180421768,-0.46472394860074173,-0.5009694618004304,-0.40559527536273154,undefined,1493658881654
903d185fccf839df,-0.0028533175323688167,-0.42723701642411066,2.1018423218593183,2.3006494405283844,-0.5755682287862322,-1.8138798111345424,1.9084941582523618,-0.6057074714813697,-0.3274562363152582,0.22637341550775592,-0.1357773333926816,0.013790328723236852,-0.8696384803921569,-0.4632557629295666,-0.8876008135527961,0.24161600184730037,-0.7938169477569875,-0.5304371197637913,-0.8398013372853863,0.3266167965278472,-0.5589537811727247,-0.47461627493755304,-0.5151631634691345,-0.4198512672943269,undefined,1493658882991
903d185fccf839df,0.013778876551629946,-0.42723701642411066,2.0737698461521106,2.294324410153939,-0.5985979035691323,-1.8140987596690419,1.8869402660188404,-0.753167688493783,-0.3126476384808561,0.228671262373322,-0.11343712034333413,0.013890002993854287,-0.865286597593583,-0.4614041000371516,-0.8791797432974864,0.22545106842412926,-0.7920429105590958,-0.5315200530385019,-0.8373454566799068,0.32486137425853845,-0.5591046829902964,-0.473139830324879,-0.5140277678254986,-0.41985522510652457,undefined,1493658883147
903d185fccf839df,0.027639044039197203,-0.42723701642411066,2.008054605496309,2.117095181044904,-0.6738892045703784,-1.8107213625648557,1.877138983795984,-0.822658157650323,-0.3131443633016547,0.1283096188048881,-0.1738504975705946,-0.029268073645907253,-0.8043602384135473,-0.4456649330746873,-0.9033903166003848,0.20524504296877308,-0.7624887009616642,-0.5551419323627508,-0.8440833856826052,0.2763408711629731,-0.5816370865656878,-0.46765399802323615,-0.5218116569089669,-0.40851208208954315,undefined,1493658884531
903d185fccf839df,0.027639044039197203,-0.43310716640532454,2.0578197029323992,2.117095181044904,-0.6702892100107589,-1.8159062490375326,1.8902564581379548,-0.7448180662794247,-0.371690582609153,0.25516538107081305,-0.19527845804585967,-0.029268073645907253,-0.8043602384135473,-0.4456649330746873,-0.9033903166003848,0.20524504296877308,-0.7624887009616642,-0.5551862628965158,-0.842145268916839,0.27600210517468243,-0.5810175649481876,-0.4690025711671132,-0.5217526520842873,-0.4047732486232459,undefined,1493658884667
903d185fccf839df,0.022094956340924458,-0.43310716640532454,2.0737698461521106,2.294324410153939,-0.6271921353825242,-1.8164140222583216,1.8987875442403483,-0.6762716305963272,-0.4150654176070292,0.12997330210266572,-0.20198218018871378,0.040410592456198005,-0.9044535427807487,-0.43362913074937676,-0.8623376395980359,0.27394572737003486,-0.7901474537522798,-0.5090697668439642,-0.831936922147503,0.300531829336034,-0.5532475530588882,-0.45901334437576985,-0.5012731582093405,-0.38582866474448074,undefined,1493658885972
903d185fccf839df,-0.018099429307332358,-0.4466085405901088,2.1362949056818006,2.267305580646058,-0.6325406984026738,-1.8074837189095,1.9381794096043683,-0.4086175846253769,-0.3848335623923794,0.12385619499418969,-0.2242550820209528,0.040410592456198005,-0.9044535427807487,-0.4336290918970531,-0.864442885075162,0.22545106842412926,-0.7920429105590958,-0.512217239835018,-0.8344767646119611,0.29816046849498423,-0.5562512272392419,-0.45781515797624395,-0.5094703402420799,-0.3839755699008917,undefined,1493658886157
903d185fccf839df,0.02625296173016198,-0.4154967164616829,1.9187328377455173,2.0749077832472396,-0.5999761788541726,-1.8089604569913125,1.8849442478087375,-0.7589504398475321,-0.34759799605739794,0.014405412804313318,-0.1443151564999439,-0.0765038765561096,-0.673803754456328,-0.4391840935250728,-0.8591797051222427,0.25778079394686376,-0.7907156835162369,-0.5209567019714023,-0.8463713425762449,0.269996709633219,-0.56852529672211,-0.4525421921187184,-0.5511497450626222,-0.3751692591788229,undefined,1493658887583
903d185fccf839df,0.02625296173016198,-0.4154967164616829,1.9187328377455173,1.8701440519011983,-0.5926116197666271,-1.808739179248854,1.8951005582130342,-0.6898338468036377,-0.35141459515941637,0.0052881673417499095,-0.15142841869592075,-0.0765038765561096,-0.673803754456328,-0.44103573051593875,-0.8591797051222427,0.27394572737003486,-0.7876608221277966,-0.5178408937928588,-0.8458675722420608,0.27296860945626694,-0.5667210902182127,-0.4527758155654866,-0.550050572381108,-0.3749896809978488,undefined,1493658887738
903d185fccf839df,0.07753559178578376,-0.3380106636396789,1.7522121430053288,1.9159075548235573,-0.5623922419356241,-1.825859086913896,1.9420057862142346,-0.39911448568673974,-0.36219645096472486,0.2756379002904878,-0.14714578610870244,-0.027131337904715797,-0.8217677696078431,-0.44936825885951737,-0.8591797051222427,0.28606939917269164,-0.795951891067871,-0.514294445023466,-0.8431737999321988,0.312496419993869,-0.5560475892012707,-0.46958483567324666,-0.5553376469473359,-0.3676399294718121,undefined,1493658888997
903d185fccf839df,0.06506147210184199,-0.3315534840463475,1.7879404943139163,1.8405201101198891,-0.5720196552438599,-1.8260780354773893,1.9051648344000385,-0.6416462198903048,-0.3643307409012856,0.27196460205441303,-0.1386211676107899,-0.027131337904715797,-0.8217677696078431,-0.45770080015387055,-0.8581270750214459,0.25171908523678227,-0.8001507963138705,-0.506580919569036,-0.8448950154935002,0.31885597808434635,-0.550622088989374,-0.4723339822621229,-0.5643499991689594,-0.36941511719823367,undefined,1493658889210
903d185fccf839df,0.05120133911968446,-0.34740288899562494,1.7879404943139163,1.8405201101198891,-0.5488048361738139,-1.8317637080978584,1.9101851349735084,-0.6108942144153087,-0.3508701835848335,0.20413415879045774,-0.14102059588226779,0.0007437771226168607,-0.8217677696078431,-0.4549232993398607,-0.8381270883818388,0.31839912469542614,-0.8001507963138705,-0.5086011285301473,-0.8336021623715195,0.3045508225609168,-0.5511235393214995,-0.4664012912113942,-0.56846575097244,-0.3613928244387121,undefined,1493658891171
903d185fccf839df,0.05120133911968446,-0.34740288899562494,1.7879404943139163,1.8405201101198891,-0.5488048361738139,-1.8317637080978584,1.9101851349735084,-0.6108942144153087,-0.3508701835848335,0.20413415879045774,-0.14102059588226779,0.0007437771226168607,-0.8217677696078431,-0.4549232993398607,-0.8381270883818388,0.31839912469542614,-0.8001507963138705,-0.5086011285301473,-0.8336021623715195,0.3045508225609168,-0.5511235393214995,-0.4664012912113942,-0.56846575097244,-0.3613928244387121,undefined,1493658891190
903d185fccf839df,0.07476356518935225,-0.3538600685889564,1.819841289027238,1.8405201101198891,-0.5220208808855898,-1.827079607888948,1.9141088048838337,-0.5690743481093474,-0.35481434745696594,0.16130246650693184,-0.15611194390960606,-0.04626312709523346,-0.8217677696078431,-0.45862659922314175,-0.8370744509188083,0.3224403580512189,-0.795091220444417,-0.5107543294026072,-0.8346236965515342,0.3200416587606551,-0.5498379524400774,-0.46599745481227145,-0.5579519960209344,-0.3669608040978784,undefined,1493658891523
903d185fccf839df,0.15515233648586588,-0.34740288899562494,1.7522121430053288,1.9159075548235573,-0.519439169342521,-1.8329609366453956,1.9551364090497627,-0.3068433727043445,-0.357680542390791,0.20127756441416284,-0.1636944801933361,-0.09030160953672792,-0.7608414104278075,-0.4549232993398607,-0.8276007726494031,0.2759662875184882,-0.7956109988931731,-0.5040287429625303,-0.8302716802474117,0.33651799573820174,-0.5424485402290783,-0.4664611572922745,-0.5368100063883823,-0.3702821998495857,undefined,1493658891663
903d185fccf839df,0.11079994544837155,-0.32450939175286786,1.6577862887623174,1.734674093181851,-0.5661773819186852,-1.8519209437310753,1.9226057061600046,-0.5409955029038918,-0.3796639385524799,0.35149594999492706,-0.1405657020418617,-0.06899936363803676,-0.7347301136363636,-0.44844243388869715,-0.8454955285363517,0.2961723412385659,-0.7601429934554289,-0.4690328965223889,-0.8244363394379616,0.3222282371524399,-0.5292350094430552,-0.4471203692558864,-0.5307081132878925,-0.3457333026129264,undefined,1493658892992
903d185fccf839df,0.10248386565907704,-0.34329376939477907,1.5722930941545892,1.5348933282515236,-0.5775636483502203,-1.8413415392787653,1.9399676853873435,-0.41838950333339925,-0.3740804448466952,0.32080031154491073,-0.12242844697744464,-0.06899936363803676,-0.7347301136363636,-0.4465907709962821,-0.8560218442687875,0.2961723412385659,-0.760159584543161,-0.4703501490066065,-0.8269551911088829,0.3136051077025194,-0.5320345600026011,-0.4464158714544249,-0.5270322903804568,-0.3476800732963397,undefined,1493658893181
903d185fccf839df,0.19257473004310094,-0.42606300104186406,1.5467721534195926,1.3452433109174213,-0.6761932052441771,-1.8623675813001614,1.9567852958214689,-0.3782400773362181,-0.3792308990512216,0.4417487605920697,-0.09246284108995617,-0.0659896132506822,-0.7347301136363636,-0.4114090724341998,-0.8823376409621106,0.25778079394686376,-0.750677234962073,-0.4787096341403172,-0.8361210134674372,0.3507615581933482,-0.5335953796134499,-0.44324784028327,-0.49811988431669363,-0.3373230335895518,undefined,1493658894519
903d185fccf839df,0.19257473004310094,-0.42606300104186406,1.5225277425815498,1.3452433109174213,-0.6798754845318832,-1.864769027149867,1.9642565753181,-0.33264323570930665,-0.37547734955448353,0.44104608760591324,-0.09042486614435102,-0.0659896132506822,-0.7347301136363636,-0.4151124370713535,-0.882337626237643,0.25778079394686376,-0.7513571982063066,-0.48649915463096943,-0.8408928385954381,0.34800523668732214,-0.5393735331935611,-0.4430659965503711,-0.4942712804701299,-0.33053240008684115,undefined,1493658894665
903d185fccf839df,0.10109774884463207,-0.4278240460362282,1.5429443426873775,1.448269002724423,-0.6288687118838482,-1.8645687122572947,1.9545972951496282,-0.38231988417187956,-0.3907637791323847,0.4702061353350089,-0.08945107578250154,-0.11392976487147898,-0.6389886920677362,-0.40122493300130424,-0.8686534128405831,0.24767782361626797,-0.7513571982063066,-0.490995545084851,-0.8317689973590605,0.37053316257717406,-0.5338225831714332,-0.447262317295848,-0.4759816803634351,-0.3249200163777572,undefined,1493658897035
903d185fccf839df,0.10109774884463207,-0.4278240460362282,1.5429443426873775,1.448269002724423,-0.6288687118838482,-1.8645687122572947,1.9545972951496282,-0.38231988417187956,-0.3907637791323847,0.4702061353350089,-0.08945107578250154,-0.11392976487147898,-0.6389886920677362,-0.40122493300130424,-0.8686534128405831,0.24767782361626797,-0.7513571982063066,-0.490995545084851,-0.8317689973590605,0.37053316257717406,-0.5338225831714332,-0.447262317295848,-0.4759816803634351,-0.3249200163777572,undefined,1493658897056
903d185fccf839df,0.14267828581274358,-0.43486824062768104,1.5761209048868046,1.497062412989886,-0.6118767394720627,-1.8522004521798991,1.9501476676891392,-0.39529554113054827,-0.4348419357834149,0.5175224373133103,-0.06073251388276057,-0.10249366414420276,-0.7913045900178254,-0.3956699054717355,-0.8728639479682379,0.2840487542300737,-0.7459687904912962,-0.4902799225987956,-0.8335251965893704,0.36201782201651833,-0.5347646024027971,-0.44612160338699625,-0.47451778677860496,-0.32462911899564045,undefined,1493658897497
903d185fccf839df,0.15515244000209508,-0.4354552556258024,1.654596361773155,1.583533283568218,-0.6069190340316594,-1.8555196178528777,1.9333510956827231,-0.5085227692479894,-0.42876300154390995,0.5322427863305365,-0.05496685554377897,-0.10249366414420276,-0.7913045900178254,-0.37807902381375796,-0.8728639479682379,0.2941518093548341,-0.7433681078015714,-0.4870944520896308,-0.8335461871137564,0.370702545732867,-0.5317500208632742,-0.4456630649710729,-0.46733936041991836,-0.324369749994746,undefined,1493658897686
903d185fccf839df,0.23692729360764395,-0.470089198970949,1.5186999318493344,1.3920567321488826,-0.6217818667623793,-1.8599102330749908,1.9545315479679934,-0.3959541731789023,-0.3974344108895241,0.3592100898169257,-0.009728413869605556,-0.03081207141580216,-0.9392686051693405,-0.3873374159804805,-0.8791797580219539,0.3082959565117796,-0.7084467887448535,-0.5021161945090146,-0.8397173743131028,0.37676953163668914,-0.5375164029698432,-0.4469070663342213,-0.4675352649096178,-0.3247315586863546,undefined,1493658898987
903d185fccf839df,0.24801539999336997,-0.5158764272804018,1.3974776235221704,1.488816641427751,-0.5654265320544448,-1.8741279092064342,1.964498512522908,-0.33971565090947814,-0.3725512970824236,0.44012837872750155,-0.010308170170200671,-0.03081207141580216,-0.9392686051693405,-0.3845598892649215,-0.8760218603573298,0.30829604130594424,-0.7099598851066558,-0.49924103800196523,-0.8355192878360329,0.3884415534734466,-0.5328081689587751,-0.44516670829018196,-0.4686651394779512,-0.32238802300966174,undefined,1493658899188
903d185fccf839df,0.10664190555372428,-0.5053100988582322,1.4127901371357785,1.4229481480547763,-0.6834857652586634,-1.8704523699317641,1.9260402310548084,-0.6297688003348632,-0.3894413405389868,0.37875878618821723,0.021847466797186042,-0.04297916998299588,-0.7608414104278075,-0.3882632539020753,-0.880232380760517,0.3547700553092319,-0.6944743208025091,-0.5133065058153296,-0.863247649077271,0.32937311647224543,-0.5583137461038374,-0.4325108354220405,-0.45594791306271365,-0.3179146310393157,undefined,1493658900534
903d185fccf839df,0.06783339518204429,-0.5158764272804018,1.3668528504319037,1.3867900195002105,-0.7040365874173871,-1.8745099047915235,1.912628220819953,-0.7293601199020989,-0.4058152553747423,0.3534069877839048,0.02435717802252329,-0.05498010382525514,-0.8130640040106952,-0.3947440805009152,-0.8833902710629075,0.3446669436550284,-0.697651005444308,-0.5192151421389929,-0.8661233383781706,0.31394387432353854,-0.5640267989574235,-0.4357693480754506,-0.4744959227821248,-0.3189067796848998,undefined,1493658900821
903d185fccf839df,0.06783339518204429,-0.5240946518680974,1.3668528504319037,1.3867900195002105,-0.7239291269501655,-1.870447711787662,1.9234945771119125,-0.6638379613021497,-0.4204936972236548,0.36833114082972995,0.02292797897630241,-0.03592771156099329,-0.691211285650624,-0.4095574354433338,-0.8970745139089026,0.3244608899349507,-0.6699584057749679,-0.5279419379506257,-0.8786056488965238,0.31355891360471305,-0.5743068640611944,-0.4192271565272785,-0.43382618411355867,-0.3255591832762031,undefined,1493658902484
903d185fccf839df,0.06506136858561277,-0.5147023534421705,1.3668528504319037,1.3867900195002105,-0.7437393796423071,-1.86693521915767,1.9300927597635698,-0.623256661623912,-0.414169192369083,0.3821125448371289,0.02106194711899805,-0.03592771156099329,-0.691211285650624,-0.4095574354433338,-0.8928639640567801,0.32850212329074346,-0.6723400544524301,-0.5295758373861729,-0.8776890666777961,0.30336514253079905,-0.5764575571738916,-0.41992681702446333,-0.43357808834845407,-0.3273338584935006,undefined,1493658902631
903d185fccf839df,-0.045819833293286344,-0.5428791171939856,1.3713195614549694,1.3179424672137732,-0.774524472692916,-1.880020884919602,1.9570509007336883,-0.4625715857780703,-0.4393258248080889,0.23684157973395603,-0.005261434631587242,0.008718073199747892,-0.6650999888591801,-0.4484424209379226,-0.884442945337107,0.26182211209682116,-0.7122890037178371,-0.5436349727707697,-0.8899194916681508,0.28896759528463173,-0.5888303017069414,-0.4352810259232652,-0.446955182870391,-0.34418452258037663,undefined,1493658903483
903d185fccf839df,-0.05136385198073962,-0.5434661468061033,1.2169204367914288,1.2452813934696088,-0.8040444238054804,-1.8784998916962972,1.9471996454361307,-0.5359359219349784,-0.45399280530882563,0.15134397622710777,0.000055081892209675833,0.008718073199747892,-0.6650999888591801,-0.44751659596710236,-0.8802323954849846,0.26384272877471754,-0.7169212875408434,-0.548175693348703,-0.8895346670026457,0.27684901904149967,-0.592260571073065,-0.43867639408829634,-0.44045620704483657,-0.3411211188123346,undefined,1493658903664
903d185fccf839df,-0.03195966580571909,-0.5510973417816812,1.0370011338037397,1.101480509060317,-0.8426055029769527,-1.8821428215159088,1.994933254195727,-0.24719570137130628,-0.4466258843229726,0.34225787468572877,-0.0005287974006998151,0.08810737290908278,-0.7738970588235294,-0.43733243063265775,-0.8812850329480152,0.2901104629401552,-0.7700768208448805,-0.5522541090990901,-0.8948382500019566,0.21567099671040807,-0.6061861195144971,-0.43673450026635247,-0.4276173290177618,-0.331521695872369,undefined,1493658904995
903d185fccf839df,-0.012555445125288818,-0.5505103267835598,1.0114807013426421,1.0687707981700747,-0.8550203392643743,-1.8789494345224027,1.9711282512448465,-0.40544862657572805,-0.4473437262858436,0.34856862353903206,0.01637212874387262,0.09745776855250762,-0.8348234180035651,-0.44566492012391273,-0.8876008209150299,0.2860692861138055,-0.786036720394162,-0.5574344569829034,-0.8991832694217979,0.21097447099737604,-0.6106444260104481,-0.4459829077832781,-0.4383312361819152,-0.33595197977969404,undefined,1493658905210
903d185fccf839df,-0.058293918471818376,-0.5176374284327775,1.0114807013426421,1.0254374721022586,-0.8553597674646954,-1.8682489099270436,1.9715910987494913,-0.37952282579417507,-0.4672786967389242,0.20201414685851973,-0.005493544383147761,-0.011583807594217078,-0.9131573083778967,-0.4521457726243018,-0.9033902945136835,0.2699045222789636,-0.7553765567207003,-0.5575674484734654,-0.9079782601371285,0.1935434316137676,-0.6176894358350733,-0.43204193027361104,-0.3965931888643201,-0.32733753932521725,undefined,1493658906498
903d185fccf839df,-0.17610518684179627,-0.5252686234083556,1.0720921096431735,1.0687707981700747,-0.8983025512979624,-1.8691153868562873,1.9545157707184944,-0.5183303732886304,-0.4400989503592711,0.111940714801915,-0.01995732191722911,-0.011583807594217078,-0.9131573083778967,-0.46140413888947523,-0.9023376644128867,0.26788390560106723,-0.7394166571714188,-0.5605882625245313,-0.9016111622515864,0.2009808808585602,-0.6162630081861556,-0.4338910407467697,-0.3951191935974091,-0.3286613660998822,undefined,1493658906678
903d185fccf839df,-0.37291921321007204,-0.5411181014276139,1.0089286580965322,0.9643559624036018,-0.9215173661429079,-1.8773539061705427,1.9513600055145972,-0.5578423444831725,-0.4376368529590653,0.051892349467958385,-0.011278271973201885,-0.003162640022902538,-0.852230949197861,-0.4789949363674182,-0.9128640169564913,0.280007577403724,-0.7238792501345983,-0.5621968299805122,-0.9050395997952553,0.19585319886150454,-0.6210170612705334,-0.43106001077898404,-0.3837914199003789,-0.3206040598421784,undefined,1493658907982
903d185fccf839df,-0.37569123980650354,-0.5475752664069491,0.987236290504599,0.9240882931276334,-0.941080760553722,-1.8745751238765083,1.9651507116383053,-0.4713562567855322,-0.42255070719155696,-0.007025656528972719,-0.01222903926572244,-0.003162640022902538,-0.852230949197861,-0.48177243070604076,-0.9128640169564913,0.2779869607258276,-0.7266115712937271,-0.5594356665648527,-0.9036612279974964,0.1993178493157783,-0.618771208192404,-0.432911260328948,-0.38836619324257554,-0.32413991744374837,undefined,1493658908166
903d185fccf839df,-0.37291921321007204,-0.5405310572015001,0.9279014121010214,0.8142208256031963,-0.9646967230225845,-1.8930063930766892,1.952435604035164,-0.5755456891556211,-0.39482925759683085,-0.18898056157398513,0.03263827804813752,-0.1851155518373843,-0.6346368092691622,-0.5132508229094548,-0.9202324497487705,0.22545112495357233,-0.772164529484038,-0.5866989888247285,-0.9156117811277876,0.1489495345706082,-0.646197740554483,-0.42028417542811813,-0.37834953554920486,-0.3295144823093212,undefined,1493658909519
903d185fccf839df,-0.37291921321007204,-0.5599025521395059,0.9508698013160094,0.826636525667592,-0.9730075660856297,-1.9039608055989374,1.9519937960057492,-0.5966291939734875,-0.39071238350960513,-0.19071833689837348,0.030968305432992813,-0.21650709917812075,-0.5693585672905526,-0.5132508229094548,-0.9191798270102074,0.22949233004464356,-0.770375100219941,-0.5873702809098987,-0.9145202786554941,0.14063437440655807,-0.6478175155414134,-0.42010365786753734,-0.37338399924721116,-0.329900512417817,undefined,1493658909702
903d185fccf839df,-0.4962745002675032,-0.592775421262296,0.9508698013160094,0.826636525667592,-1.0359766015906746,-1.9259884209306968,1.9687351395206245,-0.5298893187597441,-0.35722812588910746,-0.34906759608710713,0.051074700552931125,-0.30170033955600645,0.40981506238859183,-0.503992424267345,-0.9381271761867839,0.11229712802108387,-0.8246906634327029,-0.613411345632461,-0.9289057218240595,0.09245263838973047,-0.6702772987001244,-0.43978631519849715,-0.4232324549205983,-0.35361673693935597,undefined,1493658910987
903d185fccf839df,-0.5142926731443079,-0.6015806462341168,0.9751142121540524,0.9713108380111134,-1.0164029199564246,-1.9350421740119748,1.9435994560171392,-0.7019265628131595,-0.34893177627432614,-0.36030275872087203,0.044229505853909425,-0.30170033955600645,0.40981506238859183,-0.5141766025525641,-0.9360219233474241,0.1284619483853688,-0.8197474265881741,-0.6108021727155689,-0.9327679614279853,0.09962831388692624,-0.6688680770624132,-0.43736097775798094,-0.42318772021018064,-0.3586832090520021,undefined,1493658911164
903d185fccf839df,-0.5142926731443079,-0.5892533312735676,0.9457657148237899,1.0103014734224933,-1.0337548922626862,-1.9311290524376552,1.9339454354555945,-0.7669203304736047,-0.3191484331740169,-0.4476776462247647,0.12699726457285127,-0.2730118019786309,0.3575924688057041,-0.5132508229094548,-0.9402324658373127,0.2052450712334946,-0.7604481209630515,-0.5877945886844139,-0.922573608708597,0.18846194775321115,-0.634845132766921,-0.4292285030341431,-0.4276030316412393,-0.36177909240911543,undefined,1493658912525
903d185fccf839df,-0.5226087874390122,-0.5892533312735676,1.0095667959765344,1.0111929388198135,-1.0176063482523792,-1.9308518730083313,1.9350289165776602,-0.7578146256999944,-0.30955514954928387,-0.4342186781493864,0.12989974558654688,-0.27671684068076496,0.17916527406417115,-0.5141766478802751,-0.9381271982734853,0.2052450712334946,-0.7604481209630515,-0.5876172663721803,-0.9248475721028246,0.19466752190079328,-0.6337182576705919,-0.4303371646572607,-0.42328305974655334,-0.3677589336333712,undefined,1493658912749
903d185fccf839df,-0.43806183822621236,-0.5816221801399781,1.0618836825217848,1.082676551625281,-0.9707035701410626,-1.9382541958289008,1.9506236699724724,-0.649553056437412,-0.3137209443922763,-0.27083607419808253,0.15184767612109198,-0.25088666511317553,-0.19074476381461675,-0.5225091244207555,-0.945495608979063,0.13856503177485074,-0.7705072510753878,-0.5996055291908797,-0.9275693316133738,0.19301988721490507,-0.6398652023125506,-0.42648094240838047,-0.4347653957738452,-0.3890984886450549,undefined,1493658914039
903d185fccf839df,-0.4907304815800499,-0.576926060155007,1.0618836825217848,1.082676551625281,-0.9868418287844172,-1.9402107567610294,1.9538504424886924,-0.6323643266405812,-0.30408255737331513,-0.25726970730265775,0.1557240531900452,-0.21866664809694736,-0.0775958110516934,-0.5280641260487752,-0.9497061441067178,0.12846197665009035,-0.77232677933879,-0.6045832230652632,-0.926512813201581,0.19508327866238584,-0.6427843148326071,-0.42502248701262796,-0.429644833682759,-0.3887140732292754,undefined,1493658914182
903d185fccf839df,-0.3756911880483889,-0.6450198291650803,1.1633275286231233,1.1943202108339583,-1.0241583364636748,-1.9522668989798453,1.9364937239158027,-0.773166511342771,-0.27792738481514406,-0.06173467112803367,0.16398982448539776,-0.2680662087734605,0.013793727718360084,-0.5438032994866268,-0.9886535609074731,0.09613219459791277,-0.7848567467512771,-0.6223724624364072,-0.9470134692782252,0.16926008616053118,-0.6623822885485535,-0.4286134841615886,-0.44852612744461373,-0.3941398013566759,undefined,1493658915535
903d185fccf839df,-0.3756911880483889,-0.6602822191162363,1.2335089720280918,1.1944114362121006,-1.0252177630605854,-1.9582344098514677,1.9441333108341077,-0.7288785742088726,-0.2676511567443558,-0.08311475800992651,0.15836385145163903,-0.2680662087734605,0.013793727718360084,-0.547506651173006,-0.9897062057327376,0.09815289606997377,-0.7860276231127217,-0.6235377240287538,-0.950266986329763,0.1525219765662216,-0.6665046620861642,-0.4280465287613889,-0.44935386080234263,-0.39235402963971866,undefined,1493658915674
903d185fccf839df,-0.5295389229409104,-0.6908070574745332,1.2647711205875125,1.33291883007014,-1.1247318818297485,-1.9780678822486346,1.9346239299868238,-0.8337889814299163,-0.28771761474750784,-0.2488590365507521,0.14334576848977362,-0.26958864523926584,0.4446301247771836,-0.5669491568710749,-0.9939167555848599,0.08198796264680266,-0.8148996808821115,-0.6556900784200096,-0.9756584130929804,0.08944994358743806,-0.6995036677826549,-0.44577249725395385,-0.4668995427261296,-0.40879271775704484,undefined,1493658917004
903d185fccf839df,-0.5253808830462632,-0.6919810874707759,1.2577531287291852,1.3230489625878157,-1.1182107495912772,-1.9764467317566292,1.9300322879016893,-0.8628303579923238,-0.28965680108225006,-0.2492425171668537,0.14421624838529254,-0.25128554502174194,0.4837970699643494,-0.5678749947926697,-0.9865483080681133,0.07592614087783504,-0.8256088095973331,-0.6603194601097665,-0.9719850874744809,0.07996450173101789,-0.700917216013763,-0.44993419098268433,-0.46721208874798414,-0.4131429338366962,undefined,1493658917205
903d185fccf839df,-0.5059766623658329,-0.7230929115992019,1.474677058785466,1.48913512060709,-1.1504255543561879,-1.9962312893188507,1.9328593292439133,-0.8947616946792046,-0.2806503780277212,-0.22617946557242746,0.17459583328735176,-0.3047948493988263,0.05296067290552586,-0.5863916819953057,-0.9970746532494842,0.07592609848075274,-0.8175401036898357,-0.6661584345789618,-0.9860836612197078,0.040390494807016605,-0.7160503366967632,-0.4505355142860427,-0.48003420413396086,-0.42161408413680257,undefined,1493658918501
903d185fccf839df,-0.5059766623658329,-0.7389423165484793,1.5174236560893302,1.4445328571077451,-1.1588906824687042,-1.996315141849149,1.9463081577747816,-0.8076527718075203,-0.28030991779652964,-0.24160567838306962,0.18086685659750115,-0.3384226481296692,-0.02102133467023172,-0.591020832750956,-0.9991798987266103,0.0739055100675779,-0.8168930132962533,-0.6724343813812274,-0.990316731953024,0.019325421328798078,-0.723495754421315,-0.4585155688767044,-0.49724669575300734,-0.43326785879706864,undefined,1493658918702
903d185fccf839df,-0.4533080190119954,-0.7847295448579321,1.584415172505136,1.6187258053113485,-1.1675100987355005,-2.0057602066297586,1.933529923365773,-0.9011338789708558,-0.2731550707894189,-0.13108253195141317,0.17828190660423351,-0.21584911675956117,0.2226841020499109,-0.6160183595032065,-0.9918114585720974,0.02339037576738358,-0.8342809239819617,-0.6881717463032765,-1.0017845051817609,-0.005373685355517734,-0.7389158086913431,-0.45211833237740406,-0.5054782446701674,-0.43708005532886013,undefined,1493658919994
903d185fccf839df,-0.44914997911734816,-0.7894256648429032,1.6067454238401218,1.618794520470801,-1.1768289399282685,-2.0043440292251673,1.9271184562362733,-0.9439175555128854,-0.2720764128811929,-0.10591298422795821,0.1754775337320187,-0.21584911675956117,0.2226841020499109,-0.6206475361604059,-1.0023378037534683,-0.0008569678379299877,-0.8631156356167516,-0.693345761448269,-1.0082355650669739,-0.02802479810889969,-0.747490587043941,-0.4582377809586288,-0.5243794866059222,-0.4583758822866523,undefined,1493658920186
903d185fccf839df,-0.49904659587475414,-0.784729530243936,1.6233337049398355,1.6284771346943516,-1.1787112234925703,-2.0097105966368076,1.9321913518314946,-0.9196362463383605,-0.2776474102083374,-0.0638120959488097,0.12257083624977581,-0.18190730507394032,-0.2212079434046346,-0.6224991861020465,-1.001285188377139,-0.10188732123248322,-0.8993867918303607,-0.6989504168353008,-1.0148965289420486,-0.07069389105982596,-0.7618050476120451,-0.45770282640699117,-0.5117047788752124,-0.4661854246244571,undefined,1493658921524
903d185fccf839df,-0.4810284229979494,-0.7911867098372675,1.7471080565131092,1.7087816768058426,-1.1558358335030747,-2.005853376473913,1.9563093029658314,-0.753303063103779,-0.25850229917953993,0.10140892076845866,0.12784304888376463,-0.17761898156701708,-0.4649133801247772,-0.6160183595032065,-1.0065483352000062,-0.09178429437244436,-0.8977083267633045,-0.6930734451026811,-1.0179611322100233,-0.04724205941248313,-0.755833576834102,-0.4603138859576792,-0.4789244742033967,-0.4774289772572421,undefined,1493658921667
903d185fccf839df,-0.3576731186878134,-0.7195708216104735,1.7126554726906271,1.6912753989394413,-1.0854302371327205,-1.9834903507002184,1.949866280289812,-0.7543607704794058,-0.20532290304666706,-0.026897356620033046,0.14492014522586597,-0.14720827599829336,-0.8130640040106952,-0.5993533416683728,-0.9991799134510778,-0.012980568978782931,-0.8172764553067964,-0.6896283239636465,-1.0086903577800748,0.10041363355462658,-0.7191137075311762,-0.46394280036235647,-0.4995427798257197,-0.4602120761299655,undefined,1493658923018
903d185fccf839df,-0.2897583463063074,-0.7295500765785371,1.7088274078214625,1.6955179837955825,-1.0580497114842826,-1.9883421559117374,1.9845429033296662,-0.5232137791494179,-0.20951363096032508,-0.049676154871968886,0.1545386830660865,-0.11792439683464365,-0.8043602384135473,-0.6012050175115624,-0.9991798913643765,0.017328511601333654,-0.8054020814977872,-0.6912115599605078,-1.0042193956849317,0.12007744807990157,-0.7147445428879563,-0.4627916327956223,-0.5027431939395469,-0.4515110110477777,undefined,1493658923200
903d185fccf839df,-0.2869863369625808,-0.7964698302063637,1.738175905151725,1.7113271048253988,-1.0040600874993013,-2.006526526676281,1.972159147820379,-0.6089162599577302,-0.24406594585544023,-0.10948657478180007,0.1108716189588478,-0.1682828495527192,-0.4823209113190731,-0.6002791795899676,-0.9991799060888441,0.057740689703292936,-0.770916485416007,-0.6798945900851616,-0.9996784652363393,0.11313274812010386,-0.7083054518766783,-0.4613776282479169,-0.5058061316868074,-0.4595299365987477,undefined,1493658924587
903d185fccf839df,-0.2869863369625808,-0.7964698302063637,1.738175905151725,1.7113271048253988,-1.0025480894564958,-2.006754792129598,1.9695398604280219,-0.6259775304419134,-0.24330458586897977,-0.11359451333118242,0.10910681718177284,-0.16781514720597585,-0.4779690285204991,-0.6002791795899676,-0.9991799060888441,0.06784368829861026,-0.770916485416007,-0.6787609931724452,-0.9994545672882856,0.11618164029154385,-0.7072819160383294,-0.4617397204464046,-0.5058550540132846,-0.4597932229414165,undefined,1493658924780
903d185fccf839df,-0.32579470931262183,-0.7988178755848532,1.7471080565131092,1.7028400163945239,-1.0558177131403916,-2.013055383671632,1.9595912976884615,-0.702067014012513,-0.25487802006872434,-0.3442645949892461,0.09117680754434035,-0.1956005208423621,-0.051484514260249546,-0.6002791795899676,-1.0149693870497314,0.07592609848075274,-0.7668128041924515,-0.6779060459808539,-1.0082705488338553,0.11969248575906109,-0.7097146478445957,-0.4590635819899413,-0.5037881360829003,-0.4728845798663446,undefined,1493658925992
903d185fccf839df,-0.2980744433483068,-0.8082101301687915,1.7209494861720092,1.6532990250584707,-1.0350508911698149,-2.011990921391202,1.9672492927072514,-0.6476849307730771,-0.25866779065578827,-0.3479522040362082,0.09260587825603518,-0.1956005208423621,-0.051484514260249546,-0.5947241779619479,-1.0202325522781832,0.06380245494281749,-0.7598020584179459,-0.6720037424292312,-1.0068501963298797,0.13285815665602288,-0.7047313246522852,-0.4598531569138285,-0.5012256389225178,-0.4757999919733201,undefined,1493658926158
903d185fccf839df,-0.31886466007424796,-0.8152543247602443,1.6469402320348256,1.6454753614156201,-1.0183880617514394,-2.0126151569887623,1.954994394948878,-0.7231127511662035,-0.2403214441859156,-0.4992689269561535,0.10651275042489076,-0.3225597529332867,0.28361046122994654,-0.5919466641971636,-1.0370746854265687,0.09007040109366668,-0.7598020584179459,-0.6624156659009798,-1.0100337451625439,0.14286714689614927,-0.6981813843503775,-0.4645061682720027,-0.5128619513821225,-0.4771097860450582,undefined,1493658927512
903d185fccf839df,-0.31886466007424796,-0.7917737248353888,1.6469402320348256,1.6173223289118512,-1.0130600710656117,-2.0093099665055503,1.942657973806892,-0.8014252016030065,-0.24367648655946986,-0.469797014162443,0.1029701422532332,-0.31827440138184565,0.5055564839572193,-0.5919466641971636,-1.0370746854265687,0.07996734596890628,-0.7598020584179459,-0.6622573422813617,-1.0091871309914122,0.14491513972317382,-0.6978767424834049,-0.46458479976392636,-0.5118850956900436,-0.4783820070399156,undefined,1493658927743
903d185fccf839df,-0.2758981788187402,-0.7735762598936258,1.6667186942606511,1.646869704349849,-0.9335310617322164,-1.9966901485473236,1.9530457090110334,-0.7080145791753114,-0.2530230680283579,-0.3492936231632262,0.09934691828404703,-0.31763852414394966,0.7536138034759359,-0.5743558213915096,-1.019179936901854,0.12442071502957604,-0.7706949284091442,-0.6676530106709929,-0.9989228093374539,0.1682591819158347,-0.6914628043318136,-0.475963680883486,-0.540976122952492,-0.4812507003087417,undefined,1493658928993
903d185fccf839df,-0.2634240246293887,-0.7735762598936258,1.6769268672450903,1.7172416955907295,-0.9403504789587447,-1.996387347569507,1.9674333779021846,-0.6125889449114801,-0.2524567067973455,-0.3709971947334405,0.10277999890961283,-0.31763852414394966,0.7536138034759359,-0.5706524956066795,-1.0160220392372297,0.07794675755573142,-0.7896313841253746,-0.6757465128346531,-0.9972505716663864,0.16681172807080857,-0.69478466703562,-0.4786853895154406,-0.537225497416736,-0.4817672683289928,undefined,1493658929194
903d185fccf839df,-0.18164913651843007,-0.7430514069213329,1.6852208807264724,1.7138220253204823,-0.876579157368252,-1.9926768697079282,1.9391629644799462,-0.7738731392238852,-0.25292042890759614,-0.23233341502218335,0.08683910792455525,-0.2960194521803775,-0.19074476381461675,-0.5836142006074576,-1.0076009616196862,0.09209096124211999,-0.7993029530998891,-0.6608324300480718,-0.991932995442931,0.2116212030001959,-0.6765967567623425,-0.4807138234567376,-0.5598132035114798,-0.4716983974460384,undefined,1493658930515
903d185fccf839df,-0.21214146358458635,-0.734246181949512,1.6820306996003604,1.6832495255829558,-0.8675894582566566,-1.9873685335897755,1.95206216251563,-0.6807112281115886,-0.25813636919468547,-0.2796435391242541,0.0857574598953933,-0.2912175128163194,0.11388703208556152,-0.5836142006074576,-1.002337818477936,0.09209096124211999,-0.7993029530998891,-0.6613770632154008,-0.9884625772970358,0.21001976494302846,-0.6752552131519656,-0.4838917628599787,-0.5590145620035922,-0.4772094894371915,undefined,1493658930701
903d185fccf839df,0.017936950951686938,-0.6667393987095678,1.7554020699944912,1.7941265674319733,-0.7301622611279391,-1.977767409759371,1.9567195512586386,-0.5960210574514244,-0.23815610902645898,-0.2049055717537675,0.07713886531662813,-0.19747250292743346,-0.33870877896613194,-0.5280641843272607,-0.9749693548726469,0.15877117028909307,-0.7608567577916237,-0.6317452197544204,-0.9751966237525146,0.26936537289874035,-0.6453741687266636,-0.48323788300873755,-0.5677796647252364,-0.4701565804875053,undefined,1493658931998
903d185fccf839df,-0.0028532830269590824,-0.6667393987095678,1.7885786321939183,1.7733978836230735,-0.7050240181020616,-1.9744831824703453,1.9403121922598856,-0.6964215555809451,-0.24386816079751084,-0.23406796290747825,0.07016539822237468,-0.19051454740714166,-0.33870877896613194,-0.5280641843272607,-0.9907588431957681,0.18503893271925229,-0.7294198022358686,-0.6319732057323433,-0.9785550930711925,0.2876895228451983,-0.6434347008512187,-0.48063122141808995,-0.5657422550120218,-0.4653112194497434,undefined,1493658932202
903d185fccf839df,0.04565725142141172,-0.6444328433949512,1.7439178753869973,1.828358783356752,-0.572873382135709,-1.968974531640831,1.9611875910096994,-0.5180297223459305,-0.22074469215997236,0.11074753703606233,0.09304435871978149,-0.12570493663392338,-0.4126907865418895,-0.5354708488476955,-0.9591798665495257,0.2557602903278535,-0.7229082417704806,-0.6290600515023264,-0.9547099614994866,0.29734434840926605,-0.6350969532646515,-0.4691690548628447,-0.5338086630712557,-0.4477241089131762,undefined,1493658933522
903d185fccf839df,0.04565725142141172,-0.6444328433949512,1.7439178753869973,1.828358783356752,-0.5687179609882866,-1.9675071109689164,1.9564697183583095,-0.5434180590546906,-0.2204200721417862,0.05572043445446102,0.09531623914595301,-0.12570493663392338,-0.4126907865418895,-0.5262124955332965,-0.9591798665495257,0.2234305365403975,-0.7229082417704806,-0.6257795868656838,-0.953464528857585,0.29129275938926236,-0.6340687356644416,-0.46963897892961726,-0.5349389310185251,-0.44108718678186526,undefined,1493658933688
903d185fccf839df,0.09416768235355331,-0.7289630469664196,1.8160132241580733,1.8835611203666953,-0.6394835593976756,-1.9870773789978664,1.92741298741531,-0.7757253874516817,-0.27469718350206634,0.09185541678114385,0.08415277244171451,0.018344070093834437,-0.4692652629233512,-0.5428775004173556,-0.9581272364487289,0.1264413034427509,-0.7727358924926949,-0.6213401929768755,-0.9592229037625449,0.15079734090260075,-0.6638857541048191,-0.46996477715695967,-0.5445129426620144,-0.43388488072738773,undefined,1493658935003
903d185fccf839df,0.09555369565176906,-0.7336591815653868,1.8466377431113907,1.936180137027456,-0.6434641233533552,-1.9846153732483334,1.9379374723995606,-0.7048813320811103,-0.27713568382759685,0.09897850633696904,0.08804756684422799,0.027400129961508164,-0.4692652629233512,-0.5363966738185156,-0.9549693387841047,0.13048253679854366,-0.7677694473294441,-0.6253679450671101,-0.9592159070189559,0.14813341004232777,-0.665730010328596,-0.47023873314432385,-0.5424812804309951,-0.4326434662659309,undefined,1493658935257
903d185fccf839df,0.06644738188382854,-0.6913940432446622,1.7439178753869973,1.852229206375523,-0.6031030477823024,-1.9757386428423171,1.9645090306892403,-0.5118404018774353,-0.2555175782568587,0.15128282251961428,0.08499604725146566,-0.0027354098509726763,-0.2516711229946524,-0.5225091697484664,-0.9297061059314742,0.18503893271925229,-0.7679130501202167,-0.6285280840008854,-0.9541851999802738,0.14968865361128203,-0.6646512433408,-0.4712941376634227,-0.5390900870420573,-0.42683810707053144,undefined,1493658936544
903d185fccf839df,0.015164924355255432,-0.6866979086456949,1.7139312401767326,1.7643472970234013,-0.6155487406186981,-1.9774902307703888,1.9484435450932398,-0.622009673915244,-0.2557995434899967,0.1456089361042805,0.0825155159360207,0.02681703673646804,-0.2516711229946524,-0.5262124955332965,-0.9402324363883775,0.1749358775944919,-0.7775712236351114,-0.6264952089198793,-0.9527018760744183,0.16120669085895362,-0.6614067332958051,-0.4728987773925717,-0.5429576140563543,-0.43129471638538586,undefined,1493658936667
903d185fccf839df,0.049815291316058975,-0.6643913679450746,1.6903247130817425,1.7681225518290566,-0.5163226222868519,-1.9622104208343838,1.957745168848091,-0.5310448966451082,-0.208599565919384,0.5124382153186131,0.11085687967380696,0.08458810515152011,-0.6433405748663101,-0.5012149105025606,-0.9265482229913176,0.23757482502095065,-0.741554313311018,-0.6163371670011192,-0.9367631410013377,0.24478945198750757,-0.6369579634973139,-0.46055717756034215,-0.4947314801139152,-0.40538954289772067,undefined,1493658938015
903d185fccf839df,0.05397333121070623,-0.6643913679450746,1.711379196930623,1.7725232938332403,-0.5258677491705592,-1.9608944005643965,1.956851034622929,-0.5374042055576272,-0.20544688321256174,0.5381812914638662,0.10952110983917376,0.08458810515152011,-0.6433405748663101,-0.5030666122472993,-0.9254955855282869,0.23757482502095065,-0.7297603674666688,-0.6202889238779585,-0.9380505542148804,0.24495883492780374,-0.6394037670800437,-0.45769057003438207,-0.49090380574859344,-0.40323016400373524,undefined,1493658938194
903d185fccf839df,0.03595515833390145,-0.6984382524501112,1.602917358970957,1.6877271684874757,-0.46213756956001,-1.961187885181524,1.999348702591363,-0.2423175102868181,-0.19546655748346825,0.5553581961169685,0.10687554806204855,-0.06877120367875962,-0.6172292780748664,-0.514176576651015,-0.896021913257041,0.23555418007833273,-0.7374607350906811,-0.6044059014008194,-0.9276462965207832,0.2813761568870303,-0.6241939279476746,-0.45003653156772816,-0.4879864667577719,-0.39902438600919643,undefined,1493658941572
903d185fccf839df,0.0345691450356857,-0.6984382524501112,1.6207816616937256,1.7084383545464004,-0.45704614986805703,-1.962052032786834,2.0188592338673055,-0.11374508466404107,-0.191507678663563,0.5259017702792539,0.11852928023797941,-0.06877120367875962,-0.6172292780748664,-0.5067699250813549,-0.8981271734586346,0.24161597358257883,-0.7289078022539932,-0.6000551691221344,-0.9267926856182968,0.29335614730961806,-0.6198851815803825,-0.4519425367498511,-0.4826097064751647,-0.4033328203328609,undefined,1493658941632
903d185fccf839df,0.055359344508921986,-0.7365942711699899,1.602917358970957,1.6508706924339929,-0.4766404028443705,-1.9743504159586038,1.9678331085524197,-0.4667336660449792,-0.16355184219526359,0.6099135823994467,0.13525764254067554,-0.057736397192945564,-0.5475991532976827,-0.4947340968544952,-0.8897061032033249,0.2416160301120219,-0.7101311534001851,-0.5983706059101649,-0.9174939242323435,0.343909243238596,-0.6070883502540771,-0.45533585739489174,-0.47817955006490465,-0.39411529389416794,undefined,1493658942499
903d185fccf839df,0.07060549078929526,-0.7295500911925332,1.5525143777918142,1.6018942823806028,-0.4550198682096502,-1.9680428360859714,1.9913251643673657,-0.2999031823749363,-0.17443878607668317,0.565151582321213,0.1417030879511256,-0.057736397192945564,-0.5475991532976827,-0.5076957500521752,-0.8897061032033249,0.2598015236836463,-0.7071794362964516,-0.5998145170021703,-0.9182635733920756,0.3344084029232671,-0.6097188446413611,-0.4537681792877285,-0.4752624417385121,-0.39467199379865375,undefined,1493658942660
903d185fccf839df,0.16485449858419562,-0.7295500911925332,1.4491563721874188,1.4569150009342016,-0.4818346791986278,-1.978657178592431,1.9836434943085115,-0.3753369516949471,-0.13861023770647843,0.6710880277601816,0.18855845573780675,-0.05057622140671817,-0.499728442513369,-0.4928824469128547,-0.8760218677195635,0.2941517810901126,-0.7083683771926284,-0.5865406667609134,-0.9015132082634176,0.38121967783386773,-0.5903912089028446,-0.45851496391731467,-0.48271582277472774,-0.3727637351940083,undefined,1493658944003
903d185fccf839df,0.1302041316233921,-0.730724121188776,1.4861615075299095,1.4681054164459868,-0.490443807185713,-1.9829313324308064,1.9545341709625652,-0.5748181374040546,-0.12806436672103563,0.6323740509232851,0.19308271604868485,-0.05057622140671817,-0.499728442513369,-0.5012149752564333,-0.8739166001557361,0.2941517810901126,-0.7083683771926284,-0.5868319820261202,-0.902324838318995,0.37793980926344173,-0.5911110200170916,-0.4578861908004123,-0.4850598753564948,-0.37032628814609075,undefined,1493658944181
903d185fccf839df,0.1246601129359388,-0.7213318812188338,1.448518488444366,1.4954186471063724,-0.5406791497371286,-1.9782379154697927,2.0029594190806224,-0.2765308447160694,-0.11197329969759169,0.6739858858010327,0.2541359722688886,-0.03978857986043169,-0.7956564728163993,-0.47251412919474006,-0.8476007961001791,0.2416160301120219,-0.7634182271712266,-0.5642613712139019,-0.8933549265426466,0.32232062468839934,-0.5915161203155308,-0.45537403573525326,-0.4718571217709393,-0.3604153450825116,undefined,1493658945483
903d185fccf839df,0.05535931000351225,-0.7213318812188338,1.4383103154599268,1.3845329894864113,-0.5848459336565304,-1.9767448731913981,1.988837362958104,-0.38284627692374285,-0.13174321720288854,0.5846285243549273,0.259543342947423,-0.03392923621477895,-0.8565828319964349,-0.4762174679303447,-0.8476007961001791,0.24161597358257883,-0.807068500742729,-0.5605819309096537,-0.8928861404157722,0.2937257120735247,-0.5960041189046319,-0.4549120858191223,-0.46259137730481587,-0.3686960550460727,undefined,1493658946121
903d185fccf839df,0.1218880863395073,-0.7078304924200534,1.2813599099611248,1.3014314678725047,-0.5851236455740735,-1.9695242320092643,1.9614479331724257,-0.5633106768126478,-0.1231929973363036,0.5096459860971778,0.2852915319712257,-0.013353027516908133,-0.9044535427807487,-0.46788496548831515,-0.845495521174118,0.2699044940142421,-0.7510507399742212,-0.5396452190789759,-0.8911229443317662,0.26610090242374074,-0.588457271032907,-0.4605807055654097,-0.4531318083859388,-0.35937205413614703,undefined,1493658947088
903d185fccf839df,0.1218880863395073,-0.7031343578210861,1.2386130585203112,1.2907836834383986,-0.5924573473444449,-1.971832507989446,1.9525881174469892,-0.6242166649483996,-0.11737713629484049,0.5212977601264144,0.28404865202052926,-0.03245387004557722,-0.9044535427807487,-0.46788496548831515,-0.831811270965889,0.2840487259653522,-0.7510507399742212,-0.5404621687524561,-0.8888629744981212,0.2726144451033037,-0.5868768573371721,-0.4613929294392722,-0.4551016251209793,-0.35815139651452244,undefined,1493658947132
903d185fccf839df,0.13297612371441384,-0.7172227323899956,1.1799155555858876,1.261052065591495,-0.7328468221314366,-1.9786781427511102,1.9036185062970885,-0.9981697132170216,-0.08220713152917922,0.5977074467706552,0.3102309742278921,-0.04340150534779376,-0.8870460115864528,-0.4854757694416454,-0.7802322635066368,0.18908022260448812,-0.8067453463291663,-0.5456805147191204,-0.8834754305268058,0.35302512601220426,-0.5730788671207037,-0.45404741463826304,-0.44987596203687014,-0.3311059624533288,undefined,1493658948494
903d185fccf839df,0.17455652266088642,-0.7154616873956314,1.2130926260592134,1.2547384248677338,-0.709734860767967,-1.9754940728213897,1.9416481334669395,-0.7363386558171856,-0.06752245762969443,0.699181119198171,0.3175369695577067,-0.04340150534779376,-0.8870460115864528,-0.4854757694416454,-0.7833901611712609,0.1527092354612393,-0.8141184774631245,-0.5427800262380417,-0.8835104143426239,0.35397982992604476,-0.5723480978246785,-0.44804718727330883,-0.44828792475974677,-0.32301135606712295,undefined,1493658948664
903d185fccf839df,0.1676264906752174,-0.7137006570152634,0.9917027473907154,1.1697617385465322,-0.7356651033280313,-1.9725336100450426,1.8890414884139894,-1.087626871846176,-0.025704645124931393,0.8080412620063481,0.35338341746589247,-0.03561979765289134,-1.0001949643493762,-0.4984375132947471,-0.8170744421924998,0.2961725108268951,-0.8238262860068133,-0.5541539937415008,-0.9140864784854092,0.333469102678249,-0.5892709444051709,-0.44064898557272086,-0.40292865586715515,-0.31437449297672077,undefined,1493658949940
903d185fccf839df,0.16901253847884287,-0.740116346544722,0.9438518094576822,1.1208815316553407,-0.7979449986979067,-1.9681057261473787,1.8966179631917321,-1.0483374093271496,-0.041859462746595855,0.6966331039145724,0.34637347222838055,-0.005405921697888917,-1.0001949643493762,-0.4891791211280246,-0.820232339857124,0.27394572737003486,-0.8190897913906006,-0.5647046779966225,-0.9164793878908718,0.31479078909233066,-0.60028913870497,-0.43567331834572054,-0.39052832901383494,-0.30782222762328865,undefined,1493658950139
903d185fccf839df,0.1177300119394503,-0.7401163611587183,1.0503994879142908,1.086879439781536,-0.7364776704593059,-1.9583695063109607,1.9157498038164311,-0.9045080026241404,-0.01783845514132512,0.9873840480073188,0.37084097760455703,-0.06457620477502334,-0.9523242535650625,-0.47251413567012734,-0.8318112783281227,0.27394572737003486,-0.8338010656847099,-0.577528888782778,-0.9251974140413485,0.34649618938360616,-0.6024852047982825,-0.45269360783735524,-0.42636568380810086,-0.30522662413905305,undefined,1493658951458
903d185fccf839df,-0.08047016574868016,-0.7407033615428434,1.0988883095903768,1.268352402251354,-0.791989577549966,-1.9699551418734356,1.857304991931622,-1.3131950226264,-0.05031867067304039,0.7975236977479825,0.37037244992271473,-0.023257385978308284,-0.9218610739750446,-0.49843746149164897,-0.8391797037581681,0.22545112495357233,-0.8301808379661754,-0.5664272385772131,-0.9303960443697931,0.3457108671715291,-0.5985643103308687,-0.45496247129118794,-0.43346729849625326,-0.3096158045044544,undefined,1493658951633
903d185fccf839df,-0.03750364998776262,-0.7213318519908415,1.3509029613491417,1.4608317683750836,-0.6568458071443044,-1.9357549230292754,1.9603907610839755,-0.5607630332858391,0.002822529996387256,1.0410173240521312,0.43874986213317874,-0.08144989166401459,-0.6650999888591801,-0.4965857726976848,-0.8981271292852319,0.28808995932114495,-0.8113902402249231,-0.5289995428722865,-0.947146409681963,0.3863165710847281,-0.5777548903687661,-0.43836537567623557,-0.4487078400542623,-0.29660673303691093,undefined,1493658952949
903d185fccf839df,-0.04443371647884139,-0.7154616727816353,1.3904596316638433,1.5305423461741683,-0.6625029404514455,-1.9333977331455707,1.9493955407559709,-0.635387254449761,-0.001016918384269975,1.1148951672271301,0.4428295970239205,-0.08144989166401459,-0.6650999888591801,-0.542877487466581,-0.8970745102277857,0.3022343043311412,-0.8135559613119431,-0.529854490041731,-0.9594887838298563,0.3568747432837297,-0.5870442173411117,-0.4370665223683994,-0.4580183177836691,-0.2985892212132943,undefined,1493658953121
903d185fccf839df,-0.12066451689152723,-0.6191911546337431,1.4842473480268523,1.5051039599528515,-0.6031544722144392,-1.910485006256855,2.0143386059033848,-0.15079035676370417,-0.03458288284219224,0.9191066313756798,0.4319717898287558,-0.14381492560672995,-0.26907865418894833,-0.5271383205041168,-0.9149692550713836,0.23151294672253997,-0.7870999093501951,-0.5639637233206076,-0.9599715629606607,0.30550552612473736,-0.6112266432845097,-0.4417189516948344,-0.49594971657445497,-0.29766503754106355,undefined,1493658954461
903d185fccf839df,-0.15808697945958175,-0.662043307952589,1.385993683051626,1.4418475929832515,-0.6529989603069213,-1.9184370292592114,1.9610035120998968,-0.5218548054857006,-0.028188441674884098,0.8845281370078186,0.4219481660199054,-0.1608570712080323,-0.27778241978609625,-0.5576908812613233,-0.9223376878636628,0.18908019433976658,-0.7937353810438063,-0.5767942674435438,-0.9647573813984449,0.33624082285858065,-0.6151977992492638,-0.4348197777205497,-0.47658509138064525,-0.31120020994408015,undefined,1493658954628
903d185fccf839df,-0.07076803815576015,-0.49356985735178915,1.2851874665563907,1.3134407301678364,-0.6638400821887386,-1.8253746058886722,1.94308400615809,-0.4935620889597055,-0.16574553567618724,0.4107003781212053,0.3039769813207915,-0.16603648226189902,-0.28213430258467026,-0.562319967263101,-0.922337680501429,0.0860291677378739,-0.8229189959676295,-0.5896438083877024,-0.9681788218559694,0.25359736629644625,-0.6354041540093037,-0.45271387127702845,-0.49696131074292643,-0.3721272233400709,undefined,1493658956013
903d185fccf839df,-0.07076803815576015,-0.5117672930655598,1.2366986448803048,1.289569434208858,-0.638917838942706,-1.8330331440636964,1.925703618830266,-0.6026105024011366,-0.18064528526247373,0.3403993361815777,0.27947324538179585,-0.1541398681292935,-0.17333723262032086,-0.5715783594298235,-0.9212850504006321,0.09411160618473792,-0.8161347385186692,-0.5957171013577112,-0.970172912913003,0.24138639904407883,-0.6410071009609101,-0.4492592176787235,-0.4943994925830401,-0.36915993108809014,undefined,1493658956130
903d185fccf839df,0.0026907701659039268,-0.3855590100134768,1.1129245474439804,1.1436003701719477,-0.6273052887807425,-1.7859219499535068,1.8862013006732516,-0.7927603212026644,-0.3324302170672459,0.3381549386062817,0.14225073387191395,-0.04042045376554033,-0.5258397393048129,-0.5660233124740929,-0.911811372131227,-0.0331867357577468,-0.7969261389359392,-0.6115431268268438,-0.9592648841690254,0.2257723751326849,-0.6479776940408115,-0.44747634629414634,-0.5180608477444,-0.3765085885283779,undefined,1493658957456
903d185fccf839df,0.015164924355255432,-0.32450930406889084,1.1971419745656033,1.2985181700232176,-0.6673886510418893,-1.7795747731106657,1.8923839743776534,-0.7481914700873198,-0.334592937337082,0.16503640452125115,0.14053099543129477,-0.04042045376554033,-0.5258397393048129,-0.5641716625324523,-0.9054955768019785,-0.0331867357577468,-0.8039513658493904,-0.5988012439818312,-0.9527228659320446,0.23282486361826488,-0.6391939025189632,-0.4424560701201944,-0.5286171475202892,-0.3862296164162369,undefined,1493658957623
903d185fccf839df,-0.06938199035213466,-0.43310719563331684,1.2271286097758678,1.1923417199224606,-0.5717419530248429,-1.792767584163838,1.8821803201783587,-0.8069046093736828,-0.45146387814723565,0.07128546750000836,0.03105727063940084,0.014007112126072538,-0.5650066844919787,-0.5613941617184425,-0.898127121922998,0.19110072622349836,-0.7934841636067824,-0.6128413803083925,-0.9613149502146714,0.2672865836654664,-0.6396675019534154,-0.43961727198190376,-0.44317498976019887,-0.43278059727307244,undefined,1493658958948
903d185fccf839df,-0.07631205684321342,-0.5417050871977429,1.145463225900355,1.0987197310221555,-0.5371820101433719,-1.8149163188168569,1.8815886149227987,-0.8327002292584635,-0.4472216144755577,0.05859583668801353,-0.0010459174022322984,0.045578937227766424,-0.5650066844919787,-0.5604683367476222,-0.8970744918222012,0.1809977841576241,-0.7975235449710006,-0.6301619813712561,-0.9662127177916431,0.2734921578130483,-0.646118181926396,-0.45798996074614406,-0.46492344778352973,-0.45768190271215914,undefined,1493658959127
903d185fccf839df,-0.10403239181834795,-0.5105932630693171,1.2150062772883716,1.1390870618467417,-0.5466757119687792,-1.84071497309514,1.892105213115463,-0.7923293935414532,-0.5171824242984209,0.1599542400384563,-0.08809463033401493,0.18140963607142646,-0.3822276069518717,-0.5502841584624031,-0.8802323881227507,0.10219398810215885,-0.8404969434402962,-0.6469506145008189,-0.9578655227338544,0.23973876446588896,-0.6553689195032215,-0.46502780295032653,-0.4734651485122947,-0.481267111233159,undefined,1493658960560
903d185fccf839df,-0.1456127907648205,-0.5023750530956176,1.229042769278925,1.2219122819671417,-0.5339111618100049,-1.8391706871398863,1.899710613112502,-0.738842002768275,-0.5112705953306699,0.16535988555954292,-0.07958341210414009,0.18140963607142646,-0.3822276069518717,-0.5502841584624031,-0.8728639406060041,0.05167891033140762,-0.8387190241211885,-0.6497117780106019,-0.95568951448392,0.22572617924439137,-0.6583650515742171,-0.4646938849402126,-0.4727807816595109,-0.48079809630885156,undefined,1493658960662
903d185fccf839df,-0.18164920552924954,-0.4906347239051975,1.229042769278925,1.2641282101815665,-0.518102048096565,-1.8930739412908062,1.892249851782203,-0.8321789193837541,-0.45561996167576474,0.10742687863709142,-0.08339243402974382,0.028956014722485147,-0.504080325311943,-0.5456549818052037,-0.8770744978203603,0.09209098950684153,-0.8336804997477465,-0.6560447212339873,-0.9593138631847985,0.2513337933753749,-0.6588319700020246,-0.464263994959061,-0.5086089396667486,-0.5290868229630994,undefined,1493658961949
903d185fccf839df,-0.2772842611277754,-0.4929827838976831,1.2577531287291852,1.367236125291126,-0.6106424613328804,-1.887735324918306,1.8579151031926224,-1.083717896894426,-0.41896780132532246,0.044546759895840345,-0.07498560198816549,0.028956014722485147,-0.504080325311943,-0.5521358343055927,-0.8918113634049185,0.08198793438208113,-0.8309825990352301,-0.6674566856409875,-0.9690394303400822,0.21873528445982257,-0.6720326970829442,-0.47183883921657094,-0.5167336312033971,-0.5433746842088815,undefined,1493658962141
903d185fccf839df,-0.18442123212568104,-0.6450198145510841,1.7037230671922936,1.7568512543294763,-0.52708146146511,-1.8953333034109552,1.9071818905140896,-0.7608510830176322,-0.3580170953115741,0.19844217919968232,-0.07546436850098243,-0.023808241216674887,-0.5214878565062389,-0.5382483043339944,-0.9076008296413384,0.08198801917624574,-0.8829161881987202,-0.6417196033887131,-0.9528558070392443,0.288166876431058,-0.6454025247121083,-0.46717285275669146,-0.501140236204789,-0.5500357830676889,undefined,1493658963446
903d185fccf839df,-0.16085900605601325,-0.6450198145510841,1.8944884269074742,1.9363816629001422,-0.5057900685594705,-1.897478532768204,1.8409817829773794,-1.1899627301967188,-0.3893530774904961,0.34426709173134373,-0.06199508272227261,0.012406029877526611,-0.5214878565062389,-0.5243608132147196,-0.9086534818288365,0.08198801917624574,-0.8805323059526476,-0.6381604892967055,-0.9536814305391805,0.29201648717336326,-0.6447917673950094,-0.4703903663194655,-0.49103230828807837,-0.5436601520887582,undefined,1493658963623
903d185fccf839df,-0.138682689768332,-0.47713336433440945,1.9257513378777433,2.0077226977986946,-0.6798034924746511,-1.8938123106402232,1.9168858673899867,-0.7396871512861225,-0.34446713454744443,0.17764396397186782,-0.008953715801392457,-0.10801150967937655,-0.6476924576648841,-0.46418160085116145,-0.917074522635211,0.1547298521391357,-0.8678319945280972,-0.5752110293261394,-0.9411781298328796,0.3803111760413699,-0.5953863685643249,-0.4889235664833083,-0.43073043047167836,-0.557790996659459,undefined,1493658965007
903d185fccf839df,-0.21907159908648458,-0.48946067929495857,1.8536557349697178,1.980428960199833,-0.7025245977987759,-1.9008349670111784,1.8750062079493577,-1.027915021701512,-0.3317491635846229,0.1855197119016443,0.002876942021961062,-0.09347021853517591,-0.8043602384135473,-0.4826982815784101,-0.9160218925344142,0.16281220579183509,-0.8807325762803233,-0.5939438768456714,-0.9410521874940161,0.3820358012851632,-0.6025560572515456,-0.49719377052786384,-0.459624036495874,-0.5578239854237892,undefined,1493658965140
903d185fccf839df,-0.32163668667067946,-0.5798611059176216,1.5576187184209833,1.605032718239554,-0.7867335968220326,-1.9196295990641985,1.942597481518337,-0.6340213196504698,-0.33250271342381005,0.3291436942341388,-0.030487994686499636,0.05026210807806531,-0.8304715352049912,-0.4567749233799521,-0.9454956163412968,0.1931214559602809,-0.876597846653968,-0.5993838760569744,-0.9389741340764051,0.31442122820556906,-0.6198567769746292,-0.47518341559886973,-0.4636812565264098,-0.5619107736529827,undefined,1493658966450
903d185fccf839df,-0.32995276645997396,-0.5687078209533152,1.610573742846236,1.6696503664682956,-0.8317026642021985,-1.9137296361366893,1.950584202493843,-0.5963048196537573,-0.2989571083496388,0.37702369552030357,-0.029648167232770598,0.05026210807806531,-0.8304715352049912,-0.4169640611114449,-0.9360219380718917,0.1547299369333003,-0.8758748951599067,-0.5744194126232886,-0.9354687319556482,0.35650518010837573,-0.5991927027914431,-0.4898576041472788,-0.44462864174201194,-0.5751934563304012,undefined,1493658966630
903d185fccf839df,-0.3521289447260163,-0.6233002742345889,1.9161813027733063,1.9272579108223695,-0.9421813295306801,-1.940660300530789,1.947191752359413,-0.6838528039186865,-0.3282536774489213,0.3808175963470722,-0.028809175742125444,0.0031059825597278485,-0.7913045900178254,-0.4614041129879261,-0.9549693314218709,0.04763762044617177,-0.8850470659730998,-0.5345661983106109,-0.9356366553983372,0.30231804892702924,-0.5943613043945298,-0.4736982783289634,-0.4611938556809241,-0.5505104337415757,undefined,1493658967941
903d185fccf839df,-0.3923235029013218,-0.6209522142421033,1.9161813027733063,1.9272579108223695,-0.9453493255008625,-1.9344132805869778,1.9074527539857142,-0.9485298906906643,-0.31273836043096104,0.342525444581037,-0.0018244949244098595,0.0068476013336742,-0.7913045900178254,-0.459552424193962,-0.9486535287303887,0.049658321918232766,-0.868594121584907,-0.5374793521143045,-0.9391980321896194,0.26919599300092634,-0.60201637412662,-0.47627635320798883,-0.4428184181458235,-0.5504181714079809,undefined,1493658968133
903d185fccf839df,-0.3216366521652697,-0.5921884501061631,1.8625881404680515,1.8790968195496491,-0.8711071633689599,-1.941361400985843,1.9781997969486773,-0.4638007403212022,-0.3365797065789499,0.5099386021637451,-0.01008764979457898,0.14273021608652223,-0.5650066844919787,-0.4595523982924129,-0.9233903547756285,-0.017021858864018777,-0.9008879777267607,-0.5415577681636716,-0.9365602343484196,0.22380137523293203,-0.6110767371784711,-0.4712020201027838,-0.47000107887899245,-0.5347889133770459,undefined,1493658969500
903d185fccf839df,-0.3756911707956841,-0.6144950492627681,1.9066110135319199,1.972903802361068,-0.8732980172682656,-1.9400407223724219,1.939712587118717,-0.7210582290772496,-0.3354081609281739,0.4863626461871862,0.017990698395685036,0.14273021608652223,-0.5650066844919787,-0.4586265862723672,-0.9391798357365159,-0.008939448681876303,-0.9037888797578778,-0.5483783487312262,-0.9402895345334545,0.22535661780567537,-0.6143837516157747,-0.4737465258143268,-0.47021724113483215,-0.5319279757403992,undefined,1493658969697
903d185fccf839df,-0.3992535003815811,-0.6326924849765387,1.9563758568310605,1.9482959097061079,-0.8284318051580417,-1.9565829797683456,1.991832712769523,-0.3894915934567579,-0.29454031281867277,0.5395665944063137,-0.0015681160233995868,0.07721037543792843,-0.15157781862745098,-0.4391841064758473,-0.9254955928905207,0.10017351274787015,-0.8766602885068122,-0.5223942802692202,-0.9256731971626113,0.2959430917583774,-0.5856979180971944,-0.48894898622162725,-0.41749494620736866,-0.5004664525697758,undefined,1493658971019
903d185fccf839df,-0.4089555934690913,-0.6549990841331439,2.0303853651051935,2.0709676572743017,-0.8191849634064287,-1.9560262916437514,1.9801537445884927,-0.46592698927518394,-0.29734226354458865,0.5248641475356969,0.0030327979887701455,0.07721037543792843,-0.15157781862745098,-0.4539974484674914,-0.957074576898997,0.12846203317953342,-0.8711710757901086,-0.5120589163316699,-0.9320402950726216,0.2809450056513728,-0.585183050345844,-0.48712011858763915,-0.4213949016554036,-0.49545559490850416,undefined,1493658971213
903d185fccf839df,-0.2564939581383099,-0.6720225483066564,2.050801711074072,2.140871841549764,-0.7723953272443483,-1.9448832110733005,1.9832648036572682,-0.4283183370262556,-0.2833798479202895,0.5887786928811329,0.07381293537473506,0.10686658197568434,-0.22991170900178254,-0.446590745094733,-0.9160219072588818,0.1365444433616759,-0.854492246959772,-0.4885510289582576,-0.9172210493177322,0.289675924475201,-0.5699614593613049,-0.46269917695771645,-0.443360859500414,-0.48042374806171967,undefined,1493658972497
903d185fccf839df,-0.27728419211695593,-0.6720225483066564,2.0303853651051935,2.140871841549764,-0.7656376243320853,-1.946087427708614,1.9930871284979212,-0.3641024892997395,-0.28244677008039926,0.550208173134309,0.0774974167710037,0.1330579133933089,-0.22991170900178254,-0.4697366283807302,-0.9097060824806982,0.10219410116104499,-0.8375952187055856,-0.4938263708920351,-0.9115186486306351,0.3077229021343795,-0.5688179545670116,-0.4655204783142845,-0.43427073159864993,-0.4815590661847371,undefined,1493658972667
903d185fccf839df,-0.22184355667209663,-0.671435533308535,2.103118343482373,2.23713859706687,-0.7243405513527982,-1.9501822300406866,2.013049982827045,-0.2225277349237369,-0.27921310152589757,0.7109166182030989,0.09923568031765705,0.10548094044476528,-0.7347301136363636,-0.43825821675115434,-0.9033902945136835,0.22140994812722262,-0.806733921127035,-0.4792416010548715,-0.9080622240820249,0.3219202690377903,-0.5587867039520807,-0.45902331480234115,-0.41192621609152336,-0.464957309367541,undefined,1493658975189
903d185fccf839df,-0.22184355667209663,-0.671435533308535,2.103118343482373,2.23713859706687,-0.7243405513527982,-1.9501822300406866,2.013049982827045,-0.2225277349237369,-0.27921310152589757,0.7109166182030989,0.09923568031765705,0.10548094044476528,-0.7347301136363636,-0.43825821675115434,-0.9033902945136835,0.22140994812722262,-0.806733921127035,-0.4792416010548715,-0.9080622240820249,0.3219202690377903,-0.5587867039520807,-0.45902331480234115,-0.41192621609152336,-0.464957309367541,undefined,1493658975209
903d185fccf839df,-0.32302266546348546,-0.6685004437039319,2.1777659896365082,2.2706315627464044,-0.755393071242073,-1.9548197453945675,1.9713596697595597,-0.5092735927846607,-0.293234771903221,0.6869899531373321,0.08992680449981726,0.06110600756039128,-0.7695451760249554,-0.4493682329579683,-0.9033902871514496,0.21332750968035863,-0.8219010490511657,-0.47042614331752525,-0.9131139215472198,0.323167542957392,-0.556186284425295,-0.45737889943482285,-0.42051556806481605,-0.45981057272066816,undefined,1493658975527
903d185fccf839df,-0.3050044925866807,-0.6673264137076892,2.1509692814154064,2.2202466566502492,-0.7472570866511045,-1.953384934039991,1.9554940492267965,-0.6125989906177253,-0.28878338663818665,0.7100550313966364,0.09824511225803736,0.04505883027937779,-0.8261196524064172,-0.46881077750836087,-0.9023376644128867,0.22140994812722262,-0.8128088256871596,-0.46575243091129337,-0.911315741072392,0.31982608028208537,-0.554274213846193,-0.453285683239077,-0.4239379869288717,-0.46479358306334023,undefined,1493658975693
903d185fccf839df,-0.18442116311486156,-0.6843498632672056,2.549726419825484,2.613099856163296,-0.7390388167879073,-1.9458218942828431,1.9909806527809755,-0.36971429798820094,-0.2938315997981719,0.7588578557102124,0.12534602667986347,-0.12740074977747767,-0.7477857620320856,-0.4641815749496123,-0.8991797961971976,0.17695646600766674,-0.7682120261780184,-0.4455123433612819,-0.9066418712721963,0.3258160756818516,-0.5429505362899776,-0.4493507530171669,-0.4072087939424843,-0.4488148531975153,undefined,1493658977073
903d185fccf839df,-0.27728419211695593,-0.6843498632672056,2.529947957599658,2.5669067711010958,-0.745950804621608,-1.945970965592786,1.9778552926949398,-0.4586431630917193,-0.290100233817206,0.7165554559036413,0.13491589422074976,-0.12658446255303882,-0.7477857620320856,-0.4641815749496123,-0.8991797961971976,0.17695646600766674,-0.7682120261780184,-0.44591131887386093,-0.9066348744307343,0.3298658666592149,-0.5424407833748417,-0.44931166879934514,-0.4077965943418578,-0.4491184307316855,undefined,1493658977415
903d185fccf839df,-0.31747861227062246,-0.6743706375271343,2.1394850868079125,2.279105913454833,-0.7178502818549137,-1.9654760145358456,2.001039661504639,-0.3312034476478074,-0.20719406706002744,0.5632540145198569,0.19180868759351244,-0.0846191574451393,-0.8087121212121212,-0.4391840546727491,-0.8886534510158267,0.27394572737003486,-0.7573210226530842,-0.4354999596675485,-0.9085659945630186,0.3364564006101854,-0.536000931959268,-0.45917861872113336,-0.4079258327090283,-0.44215122040028654,undefined,1493658978505
903d185fccf839df,-0.336882798445643,-0.681414817504591,2.1509692814154064,2.268684341210699,-0.7319622585517863,-1.9659395333272993,1.9579108407049304,-0.6231811223368631,-0.2243056455110824,0.5729660576803925,0.18940917262340787,-0.0846191574451393,-0.8087121212121212,-0.4484423950363735,-0.8833903005118426,0.2658633171878924,-0.7573210226530842,-0.43251081023520954,-0.9124422278254001,0.3393821053257538,-0.5360383940774702,-0.45540892711754294,-0.41283676747772724,-0.43749655154451794,undefined,1493658978720
903d185fccf839df,-0.23293169756323237,-0.6820018325027124,2.08142597589044,2.102908853803688,-0.7089634414701603,-1.9662330172340818,1.9823233287796742,-0.4601034883998562,-0.2261493455989984,0.5786107042129698,0.22286823247638685,-0.05687527346441957,-0.6999150512477719,-0.4725141162439655,-0.8749692228942991,0.20928619153040123,-0.7449331469113997,-0.4391983991350287,-0.9110078811124335,0.3109565755300144,-0.5434466293797656,-0.45701738395969616,-0.3891230087570319,-0.427541572094456,undefined,1493658980028
903d185fccf839df,-0.23293169756323237,-0.6820018325027124,2.119706878719036,2.151346538364138,-0.7067417305097471,-1.9670249584938573,1.9713175913328587,-0.5330061024342277,-0.22539094393698597,0.5844757754524819,0.2243004578640373,-0.03261119337038019,-0.6999150512477719,-0.4873274711863841,-0.8707586877666442,0.197162547992466,-0.7479798639330455,-0.4450120414198012,-0.9115606291900421,0.309863285647544,-0.5462559266373493,-0.45480485152993905,-0.3906147487321453,-0.42834222267440647,undefined,1493658980213
903d185fccf839df,-0.21629953798464335,-0.6831758624989551,2.3174904844294937,2.403189720501576,-0.6905006170125588,-1.9716065720883886,1.9138168836053462,-0.9085503877538407,-0.2472333751255199,0.6652759168021496,0.19194784158211678,0.029214303623671976,-0.7434338792335116,-0.49380829778522406,-0.8686534422895182,0.20928619153040123,-0.7479798639330455,-0.45660766113254253,-0.9073415522742252,0.3041966566328636,-0.5530530639841855,-0.44181078602501417,-0.42759219670124077,-0.420889018072144,undefined,1493658981529
903d185fccf839df,-0.1996673784060543,-0.681414817504591,2.2926079357114486,2.38907745361138,-0.6663189434891752,-1.9730204202669,1.9341926207445892,-0.7680402228994305,-0.2572600347652567,0.6790336391957698,0.18284402927853963,0.013855004173444131,-0.7434338792335116,-0.4882532832064298,-0.8686534422895182,0.197162547992466,-0.7479798639330455,-0.453523517655776,-0.9069007532195797,0.30555171981867457,-0.5516750461869772,-0.4425501169265385,-0.4284312295404549,-0.42002567741179325,undefined,1493658981692
903d185fccf839df,-0.19550933851140706,-0.7037213874332037,1.9972085487688171,2.0032422732997475,-0.6702583648887611,-1.982367657077374,1.890777153986148,-1.0782970853007636,-0.24672535423458164,0.7374755420724258,0.20087312204652755,0.03941608543122931,-0.8087121212121212,-0.49380829778522406,-0.8623376322358022,0.19514198784401268,-0.7736616938840789,-0.4532258690316419,-0.9101682638684028,0.32715573698932743,-0.5483789512403078,-0.438953276282518,-0.45238732816033983,-0.40272038591530673,undefined,1493658983004
903d185fccf839df,-0.21907156458107485,-0.6931551028530225,1.9972085487688171,2.0032422732997475,-0.6710812211319638,-1.9859593440826893,1.8903879430735282,-1.0839709193285803,-0.24419388232121114,0.736826245055113,0.19083881154574525,0.03941608543122931,-0.8087121212121212,-0.4928824598636293,-0.8623376322358022,0.17897708268556312,-0.7632203283225142,-0.44681693014085455,-0.9104481361811286,0.31628443501581666,-0.5477242168309067,-0.43590828716250735,-0.4520832376197325,-0.4052194471543469,undefined,1493658983198
903d185fccf839df,-0.16363110166326422,-0.7348332407896219,2.056543681309344,2.0047562683032605,-0.6436595556801495,-1.9820206003655063,1.912338936677582,-0.9277721682538016,-0.21990890809891012,0.7265282279012125,0.22402386076247488,0.12768649988101463,-0.9001016599821747,-0.4725140903424164,-0.8644428997996296,0.1547297673449711,-0.7501974753354373,-0.42572822793875265,-0.9061940750824701,0.29691318958086593,-0.5414883396697561,-0.4413332190100768,-0.4479503063509494,-0.40133462077911475,undefined,1493658984489
903d185fccf839df,-0.19273738092579504,-0.7254409862056835,1.9570139947110627,1.986783232922379,-0.6413658446544184,-1.9860478551158864,1.8814176771739008,-1.1368680242903264,-0.21899431474611844,0.7852108812055584,0.2245937884930052,0.12768649988101463,-0.9001016599821747,-0.4715882394700471,-0.8676007974642538,0.16887405582552426,-0.7406638602731765,-0.4227137466818741,-0.9073555456574132,0.32210504649253835,-0.5360544302956887,-0.4423015488248214,-0.44713597862721266,-0.40129518356977495,undefined,1493658984682
903d185fccf839df,-0.15392887055411503,-0.6855239224914407,1.9972085487688171,2.0032422732997475,-0.5958413494861369,-1.9753286958991572,1.9086729911730205,-0.9242611811295713,-0.20772717653190007,0.8717276304748744,0.21926430287855372,-0.03290076823092952,-0.8391753008021391,-0.45770078720309604,-0.8676007680153186,0.14058559192330405,-0.7448018006457496,-0.4068750546942068,-0.9144573087278258,0.3546419623532703,-0.5255471111637275,-0.4427188570060506,-0.4701506470253783,-0.3913477778005973,undefined,1493658986008
903d185fccf839df,-0.16085907506683272,-0.6837628774970765,1.9972085487688171,2.0032422732997475,-0.6016836257400743,-1.9716554856294906,1.9015961821959355,-0.9685326492129448,-0.21471884446848946,0.9258239486768122,0.20781332136502217,-0.05196780940954573,-0.8348234180035651,-0.46232995090952095,-0.8728639553304717,0.14866803037016807,-0.7418068782305584,-0.4039682339947538,-0.9191801562225094,0.3457724576146616,-0.5266753815859828,-0.44208891851949605,-0.4689483707995088,-0.3855901149055797,undefined,1493658986171
903d185fccf839df,-0.23847588877773432,-0.6831758624989551,1.8976788621705356,1.9852692379188661,-0.5954607771453096,-1.9760134920706482,1.8858436458309134,-1.077037980104355,-0.2344322318811496,0.8795805467048496,0.23028713884622667,-0.018738715597621917,-0.847879066399287,-0.4567749233799521,-0.8781271205589234,0.22949241483880817,-0.719854589733678,-0.3953997605071592,-0.9014852215887975,0.3215507039104014,-0.5191982255261511,-0.4214336895841974,-0.5041463635586501,-0.3814611402677586,undefined,1493658987605
903d185fccf839df,-0.2454059552688131,-0.672609577918774,1.9550998352080058,1.9776357151637471,-0.586028793395147,-1.9799172971175656,1.865804524582539,-1.2121919606034721,-0.22571017207681685,0.924999778313277,0.2213508295359491,0.004807247912549096,-0.8913978943850268,-0.44936824590874286,-0.8760218750817973,0.23353361992987942,-0.7044618430805021,-0.39097936580926634,-0.8983156663534188,0.3177626861421426,-0.5167013943371848,-0.419069952173595,-0.5069296964486286,-0.38481311217794,undefined,1493658987814
903d185fccf839df,-0.22738764437036937,-0.7043084024313251,1.870882408086383,1.8093538871618082,-0.604152187619898,-1.9825609833131694,1.876947011809464,-1.1487073046512208,-0.24465091534650757,0.8101248577184914,0.20928827495174387,-0.004497269634533781,-0.7390819964349377,-0.466033276694351,-0.8802323660360494,0.27192513895686,-0.7397971768750696,-0.3998581519480299,-0.9052565026452095,0.3555504714558022,-0.5204801700153361,-0.4117579498548115,-0.48379775105621203,-0.3767881945587482,undefined,1493658988988
903d185fccf839df,-0.14145481988099273,-0.7043084024313251,1.810271253922801,1.8651272596238564,-0.5382311551983262,-1.9793792424464396,1.9309842668040722,-0.7749335427973392,-0.22372482043405734,0.8852818814034106,0.2291616608178232,-0.004497269634533781,-0.7390819964349377,-0.46140412593870067,-0.8781271205589234,0.263842700509996,-0.7200233681392489,-0.39758462488547625,-0.9013592790297197,0.3661907976765177,-0.5167423533020707,-0.4029053160759133,-0.4663321785379408,-0.3648726377611711,undefined,1493658989153
903d185fccf839df,-0.20243940500248583,-0.6878719824839262,1.9570139947110627,2.0472350419450893,-0.46655013168301634,-1.97196760374856,1.9060326669242371,-0.9170163475619534,-0.19984927466588467,1.1453640965322252,0.27968015985356504,0.03939326827642045,-0.7390819964349377,-0.4280740643674843,-0.8865482055387006,0.3426464117712966,-0.6544638620987121,-0.36726249054151355,-0.8875825583829571,0.3499762351062211,-0.4987712871773866,-0.3987244154089811,-0.4361682063799172,-0.35071207558860285,undefined,1493658990523
903d185fccf839df,-0.18442116311486156,-0.7007863270565929,2.0750458677751653,2.123219816706241,-0.47632154364950424,-1.9693192588978405,1.9236891872820703,-0.798786253135924,-0.20296746087494558,1.097734438757266,0.28463393603525694,0.03288936326673608,-0.7564895276292335,-0.4354807547894681,-0.8865482055387006,0.3386051218860608,-0.667367104253037,-0.37483669135684766,-0.8870717911339061,0.32969648427087367,-0.5048816359309093,-0.3980764442816185,-0.458348328024661,-0.3432007044468176,undefined,1493658990668
903d185fccf839df,-0.24956385714182142,-0.7207448369927201,2.071855940786003,2.0845046015855484,-0.5435694298907523,-1.9780911737025955,1.8942669220377983,-1.0148495641271162,-0.20259588220670335,0.9715364342100521,0.27831639415863824,0.06014224342383419,-0.8304715352049912,-0.4317773901523144,-0.8676007827397862,0.33658459000232904,-0.6711749364459181,-0.36800977781793254,-0.8726863481182672,0.3576292644181359,-0.4921275755353768,-0.40459294241098726,-0.45939041303089534,-0.3429930305924243,undefined,1493658991906
903d185fccf839df,-0.2454059552688131,-0.7084175074181748,1.9570139947110627,2.0472350419450893,-0.563101968520792,-1.9794630955434735,1.8972911991635566,-1.0005622336961086,-0.19812297714217617,0.9985972240621407,0.2806013321294199,0.06014224342383419,-0.8304715352049912,-0.4317773901523144,-0.8676007827397862,0.3386051218860608,-0.6744851397160285,-0.36666719364759204,-0.8712799891626404,0.3635576662245893,-0.48969196156053135,-0.4074027216226195,-0.46038389869210355,-0.3485203647210499,undefined,1493658992077
903d185fccf839df,-0.029187604703877844,-0.7007863270565929,2.0750458677751653,2.123219816706241,-0.48921980991631164,-1.9752122343355687,1.915970710449943,-0.8515956624254222,-0.18711291993379664,1.223234024202118,0.2920011940570244,0.07789551843664329,-0.7956564728163993,-0.39104074176531056,-0.8623376175113345,0.35477011183867496,-0.6833050824516399,-0.33478715498735434,-0.8674107525643261,0.4228724785279412,-0.46455766827963285,-0.3988606287354201,-0.4421790058765415,-0.33520058044894324,undefined,1493658993418
903d185fccf839df,-0.06522395045748741,-0.7007863270565929,2.155435230027624,2.2590130450562897,-0.5192231876793947,-1.9758551043433885,1.8861276724614005,-1.0575530629326708,-0.18579782377651743,1.2117481317744152,0.29710717206252785,0.07789551843664329,-0.7956564728163993,-0.3891890788728955,-0.8676007827397862,0.3567907567812929,-0.6841843241675172,-0.34144941189099726,-0.8696917129101229,0.4038553981998426,-0.47115705807951863,-0.400768376540829,-0.4532615989615513,-0.3312671141823832,undefined,1493658993565
903d185fccf839df,-0.08324212333429219,-0.723679911983327,2.0750458677751653,2.123219816706241,-0.5319980237812717,-1.9794281573661006,1.9092962650691225,-0.9138865084412539,-0.17723912875216452,1.156390601372036,0.3185577813405791,0.03877558245458081,-0.6389886920677362,-0.3678948455285388,-0.8581270823836797,0.39720289248616986,-0.6895239030873491,-0.34497686153591456,-0.8633526021702145,0.40865971350217956,-0.46876303395574265,-0.409103168218509,-0.44909529678764315,-0.33781760504568714,undefined,1493658995658
903d185fccf839df,-0.08324212333429219,-0.723679911983327,2.0750458677751653,2.123219816706241,-0.5319980237812717,-1.9794281573661006,1.9092962650691225,-0.9138865084412539,-0.17723912875216452,1.156390601372036,0.3185577813405791,0.03877558245458081,-0.6389886920677362,-0.3678948455285388,-0.8581270823836797,0.39720289248616986,-0.6895239030873491,-0.34497686153591456,-0.8633526021702145,0.40865971350217956,-0.46876303395574265,-0.409103168218509,-0.44909529678764315,-0.33781760504568714,undefined,1493658995678
903d185fccf839df,-0.148384817361252,-0.7577268403303522,1.998484570391872,2.0857726068765627,-0.5563751246541537,-1.9796238135600666,1.9129885133221687,-0.8978031554788724,-0.16082299934235095,1.0742623248432224,0.3359831243982596,0.024139883817069566,-0.6389886920677362,-0.3641915197437087,-0.8528639097929943,0.29415169629594795,-0.6841843241675172,-0.3529437045879505,-0.865143785675122,0.404779305195866,-0.47443541495338415,-0.40485241790796256,-0.44058486490788556,-0.33983159811457325,undefined,1493658996439
903d185fccf839df,-0.009783349518037844,-0.7765113202702366,1.998484570391872,2.0857726068765627,-0.5437340024837429,-1.9854096437464206,1.914400719353429,-0.8901665594983245,-0.16050581696361516,1.1213172823279136,0.32370933933791596,0.020188174149398948,-0.6433405748663101,-0.3641915197437087,-0.8476007372023088,0.2759662875184882,-0.6802392900175578,-0.3523420749662815,-0.863744423548723,0.3998056077609717,-0.4749659038544501,-0.4065457455623608,-0.43674771299791515,-0.34018219281601103,undefined,1493658996626
903d185fccf839df,-0.22600163107215362,-0.7765113202702366,2.0750458677751653,2.137042007506128,-0.5590185466384787,-1.981456924618394,1.9293274974308665,-0.7900555100481021,-0.13857938665630912,1.0251790166300985,0.34505732689048146,0.032488257047484474,-0.6955631684491979,-0.37807902381375796,-0.8539165693427262,0.2800074926095594,-0.6846568055482335,-0.3561228423915146,-0.8707972089613502,0.397557435560477,-0.48129130097446665,-0.3846380093877026,-0.4366270493046258,-0.31059354161355013,undefined,1493658997906
903d185fccf839df,-0.22600163107215362,-0.7765113202702366,1.998484570391872,2.123219816706241,-0.5589979752644071,-1.9809072241466703,1.908536249249324,-0.9288000174549869,-0.13917315685569737,1.0252685790621903,0.359187832151777,0.0465131599463098,-0.7826008244206774,-0.3901149038437158,-0.8528639392419294,0.2820281940816204,-0.6866861139605792,-0.3640770198717855,-0.8720636316382728,0.37927948039840326,-0.4884253227657527,-0.3876475957254076,-0.4525799787629352,-0.31519234536704244,undefined,1493658998075
903d185fccf839df,-0.17887717893281804,-0.7536177061155102,1.8664162053372162,1.9064411525974527,-0.5875407816273972,-1.988915148437229,1.918216564179179,-0.8778015278295819,-0.1714621804426875,0.9513003596649096,0.3386610434899365,-0.015826649783575005,-0.9392686051693405,-0.39844739333497076,-0.854969199443523,0.30021357459435866,-0.6993770987342686,-0.37693922876847513,-0.8692229263122349,0.3500840274014501,-0.4976132681657768,-0.40514266569088225,-0.45853755066976054,-0.30904463990722775,undefined,1493658999379
903d185fccf839df,-0.18164920552924954,-0.7553787511098743,1.9136287512532977,1.8538141388775584,-0.6238492931614485,-1.990701674948585,1.880744456391143,-1.1361351799259551,-0.18535852341768322,0.8279538728618971,0.3256738185702022,-0.016296964992590618,-0.9392686051693405,-0.41140908538497434,-0.8518113017788989,0.2820281092874558,-0.6941575081930942,-0.38032735351960983,-0.8733300543151955,0.3510387312075922,-0.5003231371477476,-0.4043084664777927,-0.45354981118890236,-0.3040930334409852,undefined,1493658999650
903d185fccf839df,-0.29530243400458017,-0.7542047064996353,1.7802846187125363,1.706233280225378,-0.6593658030967756,-1.9921201825075077,1.8682555056007446,-1.2411809020716607,-0.18930463643272066,0.9156013784299796,0.3628916081509513,-0.022964934417261957,-1.0437137923351159,-0.367894897331637,-0.854969199443523,0.2820281658168989,-0.7186569212876944,-0.36666719471063186,-0.8712240139109942,0.3371955279032553,-0.49439097223431194,-0.40179687590237745,-0.43090332433429973,-0.3177945277455077,undefined,1493659000957
903d185fccf839df,-0.29530243400458017,-0.7542047064996353,1.7802846187125363,1.706233280225378,-0.6428469733289107,-1.991533214248165,1.873317880934589,-1.200566677420114,-0.19413333432093052,0.9310666405566322,0.3594473991940185,-0.015101367488501062,-1.0437137923351159,-0.367894897331637,-0.8591797272089441,0.2820281658168989,-0.722599093744095,-0.3644063339451463,-0.8709301478419398,0.33704154342186776,-0.4929688910740795,-0.4030062469745697,-0.433664064880227,-0.31817157569680166,undefined,1493659001160
903d185fccf839df,-0.34242688614391575,-0.7465734969100611,1.6986192348370235,1.8012639663429941,-0.6657943646640576,-1.993536360419489,1.894550931384176,-1.0651191726085392,-0.17174980534239,0.9054658283145504,0.35066901181605903,0.027639262950464254,-1.0524175579322639,-0.41788991198381426,-0.8612849947727715,0.3143578913396334,-0.7492284077228174,-0.37946607330129123,-0.869551775664923,0.3142980383937931,-0.5022120454897754,-0.4124075289354634,-0.4315344067448526,-0.33263413820975585,undefined,1493659002382
903d185fccf839df,-0.33965485954748426,-0.7500955868987894,1.8045287754136299,1.8083068047619897,-0.6715337844317366,-1.9930775004063743,1.9130279504226662,-0.9430415634708034,-0.17228997226582723,0.9196474661778413,0.3489709847053975,0.027639262950464254,-1.0524175579322639,-0.41881573695463453,-0.8591797345711779,0.3062753963633263,-0.7541335746415081,-0.38255021697737773,-0.8713639497248018,0.3016097192383545,-0.5060146956110471,-0.4114964447687128,-0.43212942469493726,-0.3299319434039164,undefined,1493659002557
903d185fccf839df,-0.33965485954748426,-0.7589008703265949,1.6986192348370235,1.8083068047619897,-0.6983588798594249,-1.9969533547620755,1.9014804734623398,-1.0301991275912978,-0.1442307952867937,0.819306675347326,0.36911098450444146,-0.005804026897656987,-1.0698250891265597,-0.4151124370713535,-0.8728639406060041,0.30425486447959454,-0.7406263857613962,-0.37162588859682005,-0.8697826706257163,0.2937411152980907,-0.5032562879212472,-0.40675167662588674,-0.40424740480729393,-0.3284681277390355,undefined,1493659005005
903d185fccf839df,-0.33965485954748426,-0.7589008703265949,1.6986192348370235,1.8083068047619897,-0.6983588798594249,-1.9969533547620755,1.9014804734623398,-1.0301991275912978,-0.1442307952867937,0.819306675347326,0.36911098450444146,-0.005804026897656987,-1.0698250891265597,-0.4151124370713535,-0.8728639406060041,0.30425486447959454,-0.7406263857613962,-0.37162588859682005,-0.8697826706257163,0.2937411152980907,-0.5032562879212472,-0.40675167662588674,-0.40424740480729393,-0.3284681277390355,undefined,1493659005024
903d185fccf839df,-0.3382688462492685,-0.7272020019720553,1.8664162053372162,1.9028231405220069,-0.6556629535392855,-1.9912793280944208,1.9129622048123143,-0.937037027655009,-0.12443969852782986,1.040031544999392,0.38243749467906085,-0.006057016561422283,-1.0828807375222818,-0.3901149038437158,-0.8686534128405831,0.3123372181322939,-0.7231462892965297,-0.3626964383106772,-0.8689430533694515,0.3051975584947312,-0.49632365631223796,-0.40854992368267745,-0.408942011243423,-0.3302078194694993,undefined,1493659005355
903d185fccf839df,-0.2925304074081487,-0.7260279719758126,1.9206472513855237,1.955373313056571,-0.6556629543074853,-1.9884679364540545,1.8953872109806589,-1.0493587799156974,-0.1261539277443548,1.0542046727356114,0.3750432371793036,-0.0022654304662684025,-1.0785288547237077,-0.41140908538497434,-0.8654955225381926,0.3123373594559016,-0.7381037499963113,-0.36918770551910074,-0.8662562779316371,0.28502559508125647,-0.5007147125326524,-0.4037493943222259,-0.4339289619121782,-0.3360855772054195,undefined,1493659005566
