UUID,iqrAccX,iqrAccY,iqrAccZ,iqrAccXYZ,meanAccX,meanAccY,meanAccZ,meanAccXYZ, covarianceAccXY, covarianceAccXZ, covarianceAccYZ,pressureDerivative, pressureIQR, iqrGyroX, iqrGyroY, iqrGyroZ, iqrGyroMagnitude, meanGyroX, meanGyroY, meanGyroZ, meanGyroMagnitude, covarianceGyroXY, covarianceGyroXZ, covarianceGyroYZ, class, timestamp 
903d185fccf839df,-1.172649679904985,-1.1140452364699578,-1.0091011906549479,-1.0529799041987036,-1.5763871255402162,-1.9444895691077404,1.9411957873682786,-0.9491928623863832,-0.28421099265307065,-0.6596432630639193,0.09073374258012706,1.6537400697047484,1.959085338680927,-1.1798511866318875,-1.3297066209609565,-1.203118609216443,-1.3705267399959662,-1.1985249540167164,-1.2998723768558562,-1.2658509299911442,-1.321800598549442,-0.47555933611166024,-0.6720607486049385,-0.526019800119941,undefined,1486821642331
903d185fccf839df,-1.1574035336246118,-1.0893906065488594,-0.9909182001976025,-1.0448498970174873,-1.5555420128153865,-1.9406083837386798,1.9386068953098115,-0.9590731332681879,-0.2831607231744186,-0.6744077314313824,0.08834779882618425,0.20833335830449126,0.7557897448752229,-1.1585570083283225,-1.307601329946353,-1.1586652330895928,-1.3501890318597103,-1.1747528469002098,-1.2656442051358872,-1.2337502216022644,-1.291714111434929,-0.4613457779366964,-0.6649923710706411,-0.5112209389703758,undefined,1486821643827
903d185fccf839df,-1.151859445926339,-0.8651506434425508,-0.9414717904960893,-0.9821321243073838,-1.502186107044688,-2.0120724458895975,1.942250354793788,-0.9670376372831063,-0.28265163939538074,-0.6765418596632718,0.08246022503549545,0.16218900593791263,0.03555314171122996,-1.1094878089338847,-1.2676012848853593,-1.134417938947542,-1.245994643299393,-1.1368815312807568,-1.247704597252183,-1.2033685436386383,-1.2601744312008554,-0.4648764892894988,-0.6658138711307028,-0.513282447747078,undefined,1486821645328
903d185fccf839df,-1.0506804061457695,-0.8123192643836336,-0.8591685228775235,-0.9077084143985172,-1.5401506137353949,-2.018978640724599,1.9358283768306084,-0.9991216385248823,-0.26462250329578735,-0.6811878857993765,0.07502414968139573,-0.09217584431623206,-0.2734305369875223,-1.0048685900215562,-1.2128643742398075,-1.0111608762910225,-1.1504163403468264,-1.0600928626279083,-1.2244160302954745,-1.092996686688929,-1.1930973152553803,-0.4575666774360357,-0.6410360762102807,-0.5053913269069268,undefined,1486821646833
903d185fccf839df,-1.1282972026039664,-0.83521287853836,-0.849598741910036,-0.9013415278734461,-1.7304668661762146,-2.0011436558563247,1.9398388265889077,-0.9758166029396795,-0.2586012493229873,-0.6960067573421372,0.0797490514210351,0.060870421761451576,-0.8696384803921569,-0.9882035818998034,-1.1823380129698944,-0.7484818458195341,-1.1859649437449502,-0.993704614378935,-1.1734022821385677,-0.8781421782250184,-1.106489094369494,-0.46310000828554254,-0.6418810295734763,-0.5021147819663064,undefined,1486821648338
903d185fccf839df,-1.1241391454566143,-0.9725745342387263,-0.8272677281642019,-0.8763930423915454,-1.7606862441912654,-2.0012158616437308,1.9402832586604155,-0.9871639867464255,-0.2734752002239077,-0.7002713488314192,0.07624999490103226,0.01925799699208678,-0.47361714572192515,-1.017830269120785,-1.232864399531142,-0.7606054893574694,-1.1934351333060025,-1.0223168541736152,-1.2008297809892394,-0.834256608837725,-1.119423386653393,-0.458266912288782,-0.64238895096626,-0.5065355511000023,undefined,1486821649820
903d185fccf839df,-0.9883097042098316,-0.9608342050483063,-0.7883491957295025,-0.8326928894958028,-1.6268281824325055,-2.0857788909610715,1.9472916875098365,-0.978083473764869,-0.31040521805665217,-0.6827671728294686,0.08479221698917684,0.04810040572870724,-0.6607481060606061,-1.0548636143868142,-1.1876011800389044,-0.7626261060353657,-1.2059817278193117,-1.0605045041385754,-1.1692181893444218,-0.8249097529230099,-1.1218494113052686,-0.46749392930915484,-0.6581238434345554,-0.5092836133838005,undefined,1486821651344
903d185fccf839df,-1.0146440258867504,-1.03479817518858,-0.8712908553650197,-0.9217156127227998,-1.415086824658972,-2.1274326762496565,1.9439097613031096,-0.9988740732916027,-0.30072619760780234,-0.6838670960790623,0.08646807515632446,0.02342939068068145,-0.8130640040106952,-1.1011553097295488,-1.2360223008768831,-0.9424601848235804,-1.2356065406573615,-1.1429214326357078,-1.2108142302081306,-1.0034085320921071,-1.2097981549403254,-0.4717101332807067,-0.6707963312949742,-0.5152082290395437,undefined,1486821652827
903d185fccf839df,-1.2973910147660417,-1.0893906211628557,-0.95231835549748,-1.0053331133636694,-1.2428425453616392,-2.1493554756322304,1.949903100680868,-0.9582404798176447,-0.2795982250389931,-0.682917574771522,0.09082885516531448,-0.0656348641328561,-0.8304715352049912,-1.1418919977782995,-1.267601275682567,-1.1283561136454843,-1.2709239087470947,-1.1753271054938257,-1.236429554650251,-1.1572697982375126,-1.2642634650982532,-0.46832391463195516,-0.6657373582495328,-0.5003041933280278,undefined,1486821654323
903d185fccf839df,-1.3375854004142984,-1.115219310308189,-0.9701826582202485,-1.0232326675485117,-1.3137418524211188,-2.143555669836607,1.9482016068409105,-0.9801086736012518,-0.28452928147316675,-0.6805384506715244,0.09161740525140429,-0.03685295405444939,-0.8130640040106952,-1.174296183385021,-1.3244434557325049,-1.22938651297021,-1.3861259942503712,-1.2084230691241928,-1.3045784927236623,-1.2883875606337631,-1.330441931539116,-0.4762576781950473,-0.6721642667617829,-0.5283074593069969,undefined,1486821655825
903d185fccf839df,-1.3029350679589047,-1.1046530111140116,-0.9472142690052604,-1.000130017218275,-1.3202938390660066,-2.100967860084654,1.9791965008415735,-0.7514050752585181,-0.2754829543582255,-0.7629069934549743,0.09879843204976542,-0.00029804027956581143,-0.5911179812834225,-1.1724445188737591,-1.3139171252756014,-1.2334277339601871,-1.3781224787048079,-1.1748394688528134,-1.2869885101246423,-1.2858006219199478,-1.3041816047502617,-0.46554442947205393,-0.6630989334581705,-0.5266443698837653,undefined,1486821657348
903d185fccf839df,-0.9397992387722802,-0.8628026126780576,-0.686905349628164,-0.7318091638291071,-1.470670728736148,-2.031952501460613,1.9748073593845097,-0.7435199519607422,-0.2868288298311509,-0.7477473147630669,0.12146304422586748,-0.0682172088124783,-0.6346368092691622,-1.0789352967420827,-1.238127566600152,-1.1344179495468125,-1.189564263348961,-1.0899336933465125,-1.2416071950109624,-1.150063325391706,-1.2205335715083614,-0.45127718090733654,-0.639973975361938,-0.5052257420373754,undefined,1486821658842
903d185fccf839df,-0.9065348506042827,-0.8721948234200074,0.41430207347905457,0.393636525836265,-1.6207904769025678,-1.9744109758045212,1.9433127953931009,-0.9208183841347191,-0.27181763314390645,-0.8002832231496422,0.15308812423320978,0.04686972560825571,-0.7216744652406417,-0.9400602107138794,-1.1118116140012213,-0.8373885768746933,-1.0391540739561909,-0.9709883443395535,-1.1758371730087622,-1.005749094642184,-1.1136943753814894,-0.4322911540948431,-0.6183045981712009,-0.4890643706518468,undefined,1486821660339
903d185fccf839df,-0.8760425580435361,-0.838147953528967,0.6522804873842157,0.6505384145548159,-1.480370142787878,-1.9367332025856625,1.9547971581178216,-0.7893705013730087,-0.2733306508803594,-0.6838482937007863,0.17155114241019345,0.06955799820592813,-0.8696384803921569,-0.8067401522152449,-1.1097063537996277,-0.7969764199712751,-1.0005152578217196,-0.8899963285518642,-1.1303089245852873,-0.8519494209188704,-1.0316418568372265,-0.4419675061929966,-0.6271733280245974,-0.49038554430384534,undefined,1486821661845
903d185fccf839df,-0.7499152271369686,-0.825233594342304,0.8200772037474591,0.820368777242871,-1.3895885809224058,-1.9353403174817383,1.9906835033212151,-0.5274921636093995,-0.2378536648791269,-0.5753932661545047,0.18865615057847382,-0.03941023455114239,-0.8783422459893049,-0.7011950856682406,-1.124443212021952,-0.8050588442857783,-1.0148485560920388,-0.8239247275698105,-1.0927360501775307,-0.7469166251220916,-0.9691201479341932,-0.44580438944186673,-0.6504366866552713,-0.4864411486772949,undefined,1486821663725
903d185fccf839df,-0.6778424148608154,-0.7741632310497587,0.9553360040651763,1.0208362464295568,-1.2984161623014014,-1.9546334059780743,2.0010922759055436,-0.4576046102672074,-0.2724537446266778,-0.4496975215338742,0.21390619155933113,0.0022508755481508535,-0.847879066399287,-0.8002592900017749,-1.0939168581142726,-0.7626261060353657,-1.0237194831840786,-0.8358433280412788,-1.0737047245012128,-0.6934378245313946,-0.9614405127750018,-0.4507680576626237,-0.6452517405103034,-0.48973631339760076,undefined,1486821664959
903d185fccf839df,-0.7360550769021063,-0.74833460036041,0.9432136715776801,0.8907412301839142,-1.4196125318880366,-1.9719536289452246,1.9605170042204922,-0.7626248750458724,-0.2625081302653158,-0.5314007170439065,0.2115782289443391,-0.14393273132060383,-0.9218610739750446,-0.8011851149725951,-1.0865484290031104,-0.8030382700049643,-1.0336658331690525,-0.8285161120847295,-1.0765034492861951,-0.7211550261462379,-0.9649365651757045,-0.44823565243014557,-0.6402566011051273,-0.49525577220137906,undefined,1486821666346
903d185fccf839df,-0.8053557935710084,-0.7048954320434426,1.0318973014484696,0.9917796449876468,-1.4531130474444076,-1.9733185632818246,1.994499348670726,-0.535587129826111,-0.2706478860795246,-0.42191201195670114,0.149109766670901,-0.2101659848162448,0.009441844919786108,-0.8076659674729841,-1.0970747594600139,-0.6959460524443611,-1.0588105246227937,-0.8185353939841764,-1.0723053623136434,-0.7011062493808966,-0.9558429490750383,-0.4386372913732622,-0.6284076850608045,-0.4976381919740724,undefined,1486821667851
903d185fccf839df,-0.9411852003123814,-0.7154617020096276,0.8398556659732845,0.8813837329883839,-1.5231792145581655,-1.95080180824798,1.9431366001323198,-0.8728901010419258,-0.25160768054619337,-0.522221979071122,0.1033337147747822,-0.1537597976836101,0.2879623440285205,-0.8215534715430334,-1.1128642551453687,-0.7282757567685545,-1.0461811843519961,-0.8353240269808592,-1.09463218561314,-0.73476725177267,-0.980414810193799,-0.4411629053624262,-0.6175899372766368,-0.5022557703964229,undefined,1486821669338
903d185fccf839df,-0.8067417723638145,-0.7330721519532692,0.8558060633299454,0.8190522423529133,-1.3043201519493648,-1.952700137632926,1.9615426150010524,-0.7076523969978706,-0.25213738677405384,-0.5231499989867214,0.10509706044940272,-0.08458046707753353,-0.6041736296791445,-0.8206276400968259,-1.113916877883932,-0.6575544627555767,-1.0658141655584845,-0.8196563235478582,-1.0921483179721339,-0.6960401602232644,-0.9675946926618931,-0.4471437323623236,-0.5838368085412307,-0.515765823733932,undefined,1486821670876
903d185fccf839df,-0.651508179447421,-0.744225466145568,0.8487878173346688,0.8190522423529133,-1.2012471815927843,-1.9549664871957417,1.968869252688379,-0.6393331133464808,-0.2534441226662066,-0.5005995115684536,0.14535360024846905,0.046719250226079895,-0.7695451760249554,-0.7872976109025459,-1.1349695387977385,-0.5928950329086489,-1.005894307859481,-0.8025510421160194,-1.0991801131845795,-0.6785937201998532,-0.9589195437265594,-0.4342988714689481,-0.5656604620442878,-0.5143462916785804,undefined,1486821672348
903d185fccf839df,-0.4214297476584428,-0.7048954028154503,0.9106749931213057,0.9832150570823207,-0.9909149635593246,-1.9754125495615684,1.9409328279723497,-0.7838604704364611,-0.236343869555717,-0.6100021289441391,0.21756950013627835,0.04938008070477514,-0.8957497771836007,-0.7641517729442596,-1.0876010591039074,-0.5767301913458227,-0.9509070175663936,-0.7761553335385862,-1.0761116272103415,-0.6058976599479746,-0.9261177133720453,-0.4085367995267977,-0.5333600506135767,-0.49103216062164506,undefined,1486821673835
903d185fccf839df,-0.37430526101369754,-0.6966771928417509,0.9770283716571094,1.1175714513444834,-0.966630432013282,-1.994472714488573,2.0072328633268306,-0.35396300730244223,-0.17969338606708157,-0.528390157749722,0.2382581620405216,0.06327332170939043,-0.9175091911764707,-0.7530417567374457,-1.1012852835443179,-0.5241943697059281,-0.9362392907795379,-0.7681948231700045,-1.0853054367757,-0.5591017852194585,-0.9166389980885921,-0.4146357189639992,-0.5278579388155962,-0.4925276016168845,undefined,1486821675347
903d185fccf839df,-0.5433990559230679,-0.8099712190051441,0.8749461335388193,0.9218996065726576,-1.0090075016512097,-2.0007965991539702,2.0279346887629126,-0.24160884171479288,-0.18732885285373263,-0.511392561202708,0.24719337843221253,0.002114355167838477,-0.8000083556149733,-0.7650775979150798,-1.0781273624289176,-0.4756997955541872,-0.9502980309443384,-0.7574224855096808,-1.0765594231615023,-0.5447504343327656,-0.9049811143513515,-0.4161087177591737,-0.5401731136726212,-0.5056511095903212,undefined,1486821676845
903d185fccf839df,-0.4616240988012899,-0.8152543539882366,0.9425757878346274,0.948416787490563,-1.0683456863677445,-2.007399991142421,2.033375756843044,-0.23525091871042794,-0.20201983680782645,-0.31299367974688663,0.20458415522666928,0.11478222122644777,-0.8000083556149733,-0.7456350857416236,-1.0581273426592586,-0.5080294928122002,-0.9639183507868133,-0.7606396213075093,-1.0635593480938565,-0.5037135764241357,-0.8920396317686041,-0.412355551084798,-0.5778042539641858,-0.5187815532226113,undefined,1486821678362
903d185fccf839df,-0.4089556279745011,-0.8563454476987222,1.0076528906104267,1.0140476561135627,-1.0307514661947939,-1.9945752003704085,1.9881194339451813,-0.5257638510459248,-0.23048136583202825,-0.3288300393760274,0.16774510300966128,0.08703982225014262,-0.47361714572192515,-0.7965559577415575,-1.0697062995358417,-0.46761737123968394,-1.019072348169675,-0.7764403158379688,-1.0687020039781072,-0.43497491815973144,-0.8870553663959634,-0.426332725356155,-0.6020493854113355,-0.5454182830083458,undefined,1486821679822
903d185fccf839df,-0.40202549247260283,-0.8592805373033254,1.0695400663970636,1.126809832301828,-1.0789811019827915,-2.015335709732555,1.945329861458609,-0.8476284685356407,-0.2491146812878566,-0.2469778065122035,0.13140226309952738,0.060896228898545866,-0.6650999888591801,-0.8419218216380844,-1.088653692885821,-0.5383386723188421,-1.0367587642480223,-0.8255522933419137,-1.0812612791591873,-0.46330805710778317,-0.9195274811719208,-0.4375460589460453,-0.6134428422700879,-0.5581507438725101,undefined,1486821681337
903d185fccf839df,-0.5433989869122485,-0.8539973730922406,1.1716215421045055,1.1743320978248697,-1.123003885227416,-1.9976800765173641,1.9019117559927692,-1.1185372885956966,-0.2242054810256919,-0.20320546201093198,0.09669259477097551,-0.10639083519734266,-0.7390819964349377,-0.8641418281501632,-1.0633904968443595,-0.48176160319079403,-1.0022800261029943,-0.8569700268866985,-1.059564168483802,-0.5193429997906491,-0.9376889051705637,-0.4362189094344705,-0.5891802195875895,-0.5470691791519157,undefined,1486821682832
903d185fccf839df,-0.529538853930091,-0.8046880694080555,1.1320651259267533,1.145724654386503,-1.1563295418875998,-1.9764630354693793,1.9318468501965613,-0.9065942551410995,-0.22160673923350616,0.06649132720279381,0.0768736028373472,-0.09972086185848346,-0.2168560606060606,-0.8845101782452142,-1.0286536225334928,-0.6777605588727367,-0.994338042224371,-0.8838597064440613,-1.0283024176336175,-0.5513717670458897,-0.9541063869173275,-0.4224314394056214,-0.5752246320131617,-0.476097141644702,undefined,1486821684325
903d185fccf839df,-0.5170646997407394,-0.8146673536041115,1.3253825288880439,1.278110801786362,-1.1413844246528515,-1.97198157959295,1.9857736565882613,-0.5316985188875509,-0.20705231973228289,0.1073668073159165,0.041253372755471966,-0.00869383707169389,-0.45620961452762926,-0.9039526774678959,-1.0497062760850657,-0.5989568617437968,-0.9729836428929679,-0.8894580283503593,-1.0200881613891308,-0.5543282682619436,-0.9534922751836198,-0.4221881370118326,-0.5824036921197874,-0.4755643387152086,undefined,1486821685980
903d185fccf839df,-0.4560800456084269,-0.8093841893930266,1.0561417122865127,1.1056103542791653,-1.0275629020093626,-1.9675280741757872,2.0045504753166514,-0.3860568780883577,-0.19213039961709394,0.17925003953507726,0.07538050690530511,0.06066468809052355,-0.26907865418894833,-0.8909910048440541,-1.024443087405838,-0.5201531363501354,-0.9739283962463888,-0.8982228232303696,-1.0221452240560247,-0.5467368348857836,-0.9581182123580995,-0.40969300272189174,-0.584420200366878,-0.4504100072037432,undefined,1486821687412
903d185fccf839df,-0.3853934019048333,-0.7994049344249631,1.0012727824951524,1.0581260573653897,-0.9696544282389294,-1.9695242326235682,1.9831938136290548,-0.5108104002672974,-0.18474235205290035,-0.06692656620285692,0.05691405512955252,0.030884573312417205,-0.15592970142602494,-0.8521059999233036,-1.0033904301731482,-0.4110403445087182,-0.9412818453645789,-0.8637589439926892,-1.0289811082703042,-0.36452703148150306,-0.9063917833439638,-0.40672323933758237,-0.5921416445722034,-0.4836351282044089,undefined,1486821688830
903d185fccf839df,-0.3244087477725207,-0.6943291474632615,0.9993586229920952,0.9658364945166531,-0.892347129521858,-1.9634495786442927,1.8909875461196526,-1.1055126257934922,-0.183448087933359,-0.36745165923549933,0.14496591055639224,-0.018696910780563774,-0.3822276069518717,-0.778965101985129,-1.0181273031199403,0.1365443585675113,-0.7598522902966647,-0.8483382254683032,-1.0273928332717843,0.4152656433138328,-0.726995299070193,-0.4001392658819714,-0.5676059751882688,-0.48171200762245897,undefined,1486821690348
903d185fccf839df,-0.3188646945796577,-0.7618359453172019,1.0057387311073698,1.033512260740228,-1.0021778030027566,-1.9582809970006225,1.9436283665711296,-0.7787903223945599,-0.1811667594554789,-0.2528073431718201,0.22947350440190742,-0.14686503362082162,-0.33000501336898397,-0.7576709269192579,-1.0697063032169587,0.3022342195369766,-0.7229756588174499,-0.8446081213045826,-1.0547503638668796,0.47023809655917087,-0.7211574471698845,-0.39501357589415925,-0.5337676224330279,-0.47286773369317797,undefined,1486821691827
903d185fccf839df,-0.4782563273906984,-0.8622155976799362,0.9215215581226964,0.9706170402773948,-0.9921081037196057,-1.9519827325192027,1.9722353948367153,-0.5697464614706503,-0.16243419569540937,-0.25182143110270494,0.23005537958485225,-0.1367854419192797,-0.7521376448306596,-0.753967607609815,-1.0591799764411722,0.21130689300246222,-0.7260503850287212,-0.8306693114013863,-1.0440522395287242,0.44723282001824277,-0.7183665771747415,-0.42306071368803944,-0.5226891225508421,-0.4852274716190511,undefined,1486821693318
903d185fccf839df,-0.38400731959579804,-0.8234725785759323,0.9910646095107132,1.0222523849134364,-0.954534449689364,-1.9567600016458282,1.9769690588791484,-0.5224750549911759,-0.15746968353702276,-0.376910743224311,0.16560198829991302,-0.020400919823668165,-0.6955631684491979,-0.7798909399067239,-1.0433904807558172,-0.3443602767853528,-0.958098891809177,-0.8259955977217213,-1.050657228268377,-0.2512098672555023,-0.8763182332735118,-0.4340548330114121,-0.5602682776858854,-0.5206008050589377,undefined,1486821694822
903d185fccf839df,-0.356287053631483,-0.7594878999387125,1.0720921096431735,1.2064115142125162,-0.9960578089677486,-1.970830936188114,1.946037278066569,-0.7425361710306742,-0.1351084430528544,-0.18182058670883325,0.09083068167299892,-0.01993979569236163,-0.9044535427807487,-0.8335893386222167,-1.01917992953962,-0.3120305371302575,-0.9964984899236877,-0.8158438894553319,-1.0316189064112398,-0.3459873013602246,-0.8852691455402402,-0.4390573919916841,-0.5821551417558486,-0.4996507485274422,undefined,1486821696320
903d185fccf839df,-0.4810284229979494,-0.8299297435552675,1.188209823204219,1.2141748672832309,-1.055077142977628,-2.026327389727116,1.9798223898758343,-0.6063800658270301,-0.20988419055936755,-0.11193831372137372,0.1579587937275681,-0.04044750897936846,-0.9088054255793226,-0.8234051473862231,-1.0739168309823797,-0.47772039809972283,-1.0123666807404614,-0.8242413727549437,-1.0673516200906148,-0.5611805763105312,-0.9382336588102074,-0.459492671415508,-0.5759653908301418,-0.5069239539152908,undefined,1486821697815
903d185fccf839df,-0.6196297528195246,-0.8434311177400518,1.2366988990172543,1.171509292022033,-1.1249170256807806,-2.015876093222037,1.9729717460916665,-0.6541129673227272,-0.207599815386111,-0.230165613047857,0.17004496735786445,-0.06957211804599692,-0.6650999888591801,-0.8752518443569771,-1.1097063464373937,-0.4716585198013121,-1.0230727104086712,-0.8644872308435161,-1.085501347761632,-0.5375901577656593,-0.9557254323518244,-0.47622131600525847,-0.5927277960753956,-0.512915637500497,undefined,1486821699324
903d185fccf839df,-0.6113136730302301,-0.7999919348090883,1.1186667718162022,1.2383493483761394,-1.0332508933858737,-1.9857567006109584,1.979998583041572,-0.5560894073903333,-0.1103141455151025,-0.17344533135644508,0.13923629743118404,-0.1519710395157643,-0.7260263480392157,-0.8428476725104538,-1.0907589678118823,-0.43932882254329914,-0.9297877419808055,-0.8458873751135259,-1.070171334818862,-0.40610283133246705,-0.9201062649562163,-0.4606509036662963,-0.5875030791171129,-0.5141281333700719,undefined,1486821700831
903d185fccf839df,-0.4255877185422706,-0.7477475415203001,1.0019109203751544,1.1270327257627755,-0.8275780921398062,-1.9605752952178477,2.015666645653547,-0.2372166030111652,-0.12177637074534373,-0.24655919665447693,0.16543479982818288,-0.12144918927890766,-0.2647267713903743,-0.8706226871259395,-1.0223378345664782,-0.4029578636647719,-0.9012054398156939,-0.8275661694147143,-1.0407777332802026,-0.3214729743250131,-0.8855709333370173,-0.4642613900917787,-0.5722271698936349,-0.5088781203081068,undefined,1486821702316
903d185fccf839df,-0.4297457929423276,-0.7759242760441228,1.202884198937825,1.2909548613636435,-0.9657767219658202,-1.9652640539785837,1.970720637469351,-0.5798575671207037,-0.1256288279781997,-0.15273539573218978,0.18000984641594975,-0.04761066104066259,-0.3909313725490196,-0.8659935169441273,-1.0528641774308067,-0.4696379879175803,-0.9142704156706581,-0.8250519896951398,-1.0353132242852536,-0.3244140791149671,-0.8821624588917576,-0.4705761621810791,-0.5497697710594244,-0.5140041675197343,undefined,1486821703822
903d185fccf839df,-0.4865723899272881,-0.7770983352683579,1.2462689341216913,1.23345618147632,-1.1149296157269148,-1.9382681715305874,1.9064324049071246,-1.0274890424446437,-0.07052657777781632,-0.0613912223673111,0.25208880217991864,0.21724729977331408,-0.35611631016042783,-0.8567351506789539,-1.0686536841595125,-0.34233964597509564,-0.9159858777299599,-0.8252483108937723,-1.0255596692808744,-0.30778375620210346,-0.8731793410756742,-0.4677635049804589,-0.5525839433999351,-0.5189829857430092,undefined,1486821705316
903d185fccf839df,-0.4574660934120524,-0.7371812569401189,1.4427762640721444,1.433704510077642,-1.06647369129921,-1.9305304399243473,1.917569630432079,-0.9245057450189003,-0.03777872882701631,-0.013834325426376637,0.24617665307849476,0.24991252659462676,0.9407447638146168,-0.8197017956998438,-1.0654957791326545,-0.41508150720270715,-0.944976534714783,-0.8318979016166171,-1.0288831538784093,-0.3104322915247891,-0.8804500133147146,-0.4416264278604934,-0.5763018299770397,-0.5087780561325528,undefined,1486821706839
903d185fccf839df,-0.5364689204211698,-0.74187737692509,1.7324336807795033,1.7544845483497151,-0.9743549901750901,-1.9449740519704393,1.866901154198162,-1.2467199537520601,-0.06153298356932372,0.06087247234282016,0.17683945377992502,0.08109477339558994,0.3314811720142603,-0.8169243013612213,-1.05075892091033,-0.3645663870348736,-0.9477104078193676,-0.8343297521714458,-0.9941789718689197,-0.36716016378155697,-0.8811397609321516,-0.44333141797153564,-0.6222534408187884,-0.4796096681290037,undefined,1486821708332
903d185fccf839df,-0.2176855512828591,-0.7958828444362347,1.5403922994412675,1.5700378217956361,-0.8349529367063333,-1.9676398778829456,1.9558201500938974,-0.6427546502036067,-0.07274427244171015,-0.09042430927228251,0.18009477078488656,-0.06948319457999116,0.2923142268270945,-0.79933345208018,-1.0328641576611477,-0.41306097531897534,-0.9787579153076893,-0.8440634862769338,-0.984754268168571,-0.33545476560386395,-0.8739680668543267,-0.44050630178552785,-0.646068788135378,-0.4682355982571503,undefined,1486821709812
903d185fccf839df,-0.1941233252131913,-0.6878719532559339,1.807081072796689,1.8441893924575565,-0.8068009846342331,-1.9481767547628812,1.9835014896353227,-0.4233844460638132,-0.07678240419643398,-0.23888410556373652,0.14780025743620315,0.05695959957317686,0.2618510472370767,-0.809517649791561,-1.056022078776548,-0.4494319341975026,-1.0046591928220663,-0.8199349712093438,-1.0050939974788278,-0.3213805856043702,-0.8700922279397796,-0.45526979029768355,-0.6334139652531025,-0.4889528728831748,undefined,1486821711312
903d185fccf839df,-0.3881653249850356,-0.7254409862056835,1.6788407726111978,1.723364136735514,-0.9832829791455073,-1.9228299733051168,2.0037720377785853,-0.3086478870690974,-0.12722663673712165,-0.0056662596044733055,0.12789732864461684,0.15929662343629122,1.1365794897504458,-0.7956301392461246,-1.0497062908095334,-0.48580283654658685,-0.985794018462608,-0.8236017461411469,-1.0055907709531988,-0.3859154714928926,-0.8858451659438427,-0.4484495466827201,-0.5938933782523198,-0.5085488618194137,undefined,1486821712863
903d185fccf839df,-0.6224018311740708,-0.7718152295132578,2.025281024476025,2.2678144461035847,-1.1447581376826155,-1.9301996870366738,2.0108672564274372,-0.307304232774712,-0.14712580950529416,-0.0381159196217454,0.08075842284758458,0.20284095415823167,0.5186121323529412,-0.7086017501886753,-1.0423378580172542,-0.5423798632775526,-0.9443020625054205,-0.779733445963326,-1.010194672375477,-0.39818803173276907,-0.8744639330661536,-0.44420222938292814,-0.5750985285551101,-0.49932865116636416,undefined,1486821714333
903d185fccf839df,-0.46023808550307416,-0.748921586130539,2.547174630716323,2.4786858673037666,-1.031070324141335,-1.9318441303004936,1.9883087813658467,-0.42879194796709946,-0.15192218311329025,0.11850258541233241,0.05877722649492551,-0.018614012658004254,0.2574991644385027,-0.7113792510026852,-1.033916802486412,-0.617142369447782,-0.9777895962081934,-0.7824439460399598,-1.0243422244391318,-0.4033773090328509,-0.877293936910284,-0.462064191717899,-0.5815982799800625,-0.5147230616933484,undefined,1486821715869
903d185fccf839df,-0.49904659587475414,-0.7295500619645409,1.9002309054166455,1.832700139591974,-1.0833525236222443,-1.9310661649988177,1.8783329114259137,-1.1689653033801914,-0.17972082822020485,-0.048496049977355085,0.09048707007407615,-0.17736111243174246,0.3619443516042781,-0.7437834357999831,-1.0402325683667253,-0.5767301348163797,-0.9753832614905044,-0.7797524456525414,-1.0349773766902965,-0.32444487705591984,-0.8673046552122935,-0.4488878745272635,-0.5945134273417508,-0.4924906404966805,undefined,1486821717345
903d185fccf839df,-0.46855416529236865,-0.6919811020847721,1.7337094482656088,1.745576777523403,-0.9844349733888195,-1.9163267390180063,1.897759291609824,-0.9887993347841805,-0.07427838982669999,-0.07321079477881454,0.16667510748438982,-0.1937284428794097,-0.7390819964349377,-0.732673439019331,-1.0170746767002603,-0.6151217669022464,-0.9690449647292686,-0.7931149567841552,-1.0265462195961346,-0.34001270350392987,-0.8726714692352596,-0.43806405436905516,-0.6062892772526624,-0.48913582083323465,undefined,1486821718853
903d185fccf839df,-0.32302263095807576,-0.6820017886607238,1.6590625645223218,1.764123128561218,-0.917341375637939,-1.913324350164969,1.8738806583520484,-1.1296877981125877,-0.11259476785279617,-0.2175081939898202,0.19391964125843686,-0.031164043437096667,-0.5388953877005348,-0.7984076400601344,-1.0044430639550619,-0.5545035209478486,-1.0136727553116607,-0.8092956273317617,-1.005758694921955,-0.29785175857961577,-0.8627844687608076,-0.44327214501780765,-0.6196776343569462,-0.49010938347222066,undefined,1486821720357
903d185fccf839df,-0.32025060436164426,-0.664978382943196,1.5486863129226496,1.6235474901745348,-0.8474809200643251,-1.9074523371675913,1.9368829274957693,-0.6796191526155998,-0.043574867283261876,-0.3297451110844678,0.21466018616496238,0.07460619074636031,-0.3125974821746881,-0.8076659804237587,-1.0212851971034476,-0.5565240810963019,-0.9912216078835205,-0.832290545807762,-1.0165127927255748,-0.30153198413341936,-0.877540771799758,-0.45070435751233295,-0.6131890765401343,-0.48561300659098067,undefined,1486821721856
903d185fccf839df,-0.4075695456654658,-0.6831758186569666,1.322192347761932,1.377784401466881,-0.8789345826202254,-1.9202491775473853,1.8988348890828683,-0.9523579950331466,-0.05306825280255944,-0.39474445375729095,0.1827416035816142,-0.09572460758725712,-0.13852217023172905,-0.8391443143486873,-1.0149693870497314,-0.5201531222177747,-0.9915422276644968,-0.8403523829595919,-1.0137350588564704,-0.3452789675386208,-0.8919844832988154,-0.44712841522984015,-0.5943290765675017,-0.4712156741634049,undefined,1486821723713
903d185fccf839df,-0.4242017397494646,-0.6990252820622288,1.3113460368974907,1.3594850277396149,-0.8938282708496461,-1.932249417740472,1.9467183976874143,-0.6684969462470748,-0.10701601562283497,-0.4126482106522527,0.1673339280456766,0.014632187522457702,-0.06454016265597147,-0.8530318119433493,-0.9949693820045399,-0.5282355323999172,-0.981840021151381,-0.8644492334195284,-1.0102716375765053,-0.3649735783355219,-0.9030080329749479,-0.4382325773237591,-0.611763355421469,-0.4719473869119117,undefined,1486821725053
903d185fccf839df,-0.34658496054397275,-0.6960902070716218,1.3030520234161085,1.3350326089618691,-0.9214350823170561,-1.928543598323805,1.9566695792314597,-0.607342464970725,-0.07270146481618837,-0.18684202272703768,0.13921979379743157,-0.0838864596390969,-0.26037488859180036,-0.8539576369141695,-1.0223378235231275,-0.6131011643567108,-0.9874783383940422,-0.8717447849677439,-1.0182899828228262,-0.41965345917880786,-0.9185496068877258,-0.4375959701513947,-0.6172535585597688,-0.47995058991365197,undefined,1486821726346
903d185fccf839df,-0.4713262954050294,-0.7148747016255024,1.4185318532341014,1.4528966639913072,-0.9972303805346822,-1.9551109007203793,1.9009413548483571,-1.0275312573278812,-0.08988710477352731,-0.19128499755735606,0.14295836495754974,-0.11714534762614776,-0.8043602384135473,-0.8484026547123117,-1.0212851971034476,-0.574709532270844,-0.9714658441982537,-0.8648735406459136,-1.020193114745108,-0.4660643751809202,-0.9227938150857278,-0.4342549832183806,-0.6282679219340749,-0.4918753004787469,undefined,1486821727853
903d185fccf839df,-0.3396548422947794,-0.7189838066123521,1.640560123919551,1.6387628943798396,-1.0111469306902674,-1.9567297222517777,1.8962629318677264,-1.068656100712652,-0.07615950342868857,0.05708510791884369,0.24644073780735853,0.1149214441406558,-0.7260263480392157,-0.8289601425388554,-1.0297062452720558,-0.5989568617437968,-0.994121111371992,-0.857394334406527,-1.0120908079273105,-0.46161422386806417,-0.9172737302589199,-0.4406934293835762,-0.613584035684992,-0.4978929378748782,undefined,1486821729349
903d185fccf839df,-0.3562870018733684,-0.6585211741218722,1.4242740776063232,1.4820006038882647,-1.019756062856441,-1.9539788906308382,1.8318274266452101,-1.4877075596359053,-0.06212111327749053,0.15713806348714357,0.22952100960144153,0.07148546558825263,-0.17333723262032086,-0.8252568232294126,-1.0381273228895993,-0.5908743667674897,-0.984405370720987,-0.8549561510409012,-1.0163658595687064,-0.4890850516077617,-0.9217706624308555,-0.44217381734457323,-0.6115117768089436,-0.5021160745791987,undefined,1486821731489
903d185fccf839df,-0.3895514590521854,-0.6585211741218722,1.7075513861984075,1.7225307149758602,-1.0528451501151646,-1.943548558104587,1.9181166227436257,-0.90729946121309,-0.09977861311428925,-0.024945751707853667,0.2748874343654966,0.054021077136508944,-0.09935522504456328,-0.8067401360267766,-1.0370746927888026,-0.5888537642219541,-0.9933293697710248,-0.8405677030723067,-1.01404291841882,-0.5012806208589392,-0.9169765248414907,-0.4399727750646056,-0.6029497791949197,-0.5079158355776284,undefined,1486821732400
903d185fccf839df,-0.5531011490105783,-0.6133210192665254,0.7830728308158167,0.8778688109068192,-1.191506631608686,-1.9324706964768705,1.9249514960871852,-0.8969536246259457,-0.133446208329186,0.009115216948583332,0.277526385788106,0.13363184819214946,-0.4126907865418895,-0.8159984893411756,-1.0370746891076856,-0.5140913428458893,-1.008604182454661,-0.8508967338336396,-1.0341027751227316,-0.47450272398552534,-0.9224739265415591,-0.4359428048219757,-0.6054737687448368,-0.5138723494356898,undefined,1486821733858
903d185fccf839df,-0.76100328176458,-0.6608692779563462,0.44811702769543327,0.5111721379511912,-1.3495052232524547,-1.9168065623920205,1.9235892578930172,-0.9260927158003838,-0.137617165767532,-0.25261318816848066,0.31938302779826594,-0.06577162812520189,-0.43445020053475936,-0.7854459480101308,-1.079180010935299,-0.5161119029943426,-1.0535719156775134,-0.850041786415045,-1.0579828903083928,-0.47781339117001953,-0.9280254803615173,-0.4399303595596792,-0.5776162761058228,-0.5256174661871036,undefined,1486821735344
903d185fccf839df,-0.744371122185991,-0.669674502928167,0.4232344789773882,0.45002530923353723,-1.3919440050840952,-1.9170394856922544,1.8754585425252794,-1.283002011835334,-0.10387601655063804,-0.2977104285367587,0.5070041526833416,-0.125382162064214,-0.31694936497326204,-0.7613742656548624,-1.051811551011127,-0.3019275385349402,-0.9612224429894047,-0.8236017471156002,-1.037755110088387,-0.05406356805272625,-0.8255314846051829,-0.4448539587837446,-0.5253141399244384,-0.3752418105417995,undefined,1486821736837
903d185fccf839df,-0.5849794721222454,-0.615082020418901,0.7945570254233106,0.7131112856276977,-1.2660265039856962,-1.8701355947544966,1.9184690195503193,-0.92561507961958,-0.10456868798064627,-0.25688384001499914,0.5317914472884412,-0.29097421284002634,0.901577818627451,-0.7947043013245297,-1.0728641898382323,0.20928630458928738,-0.7134206182112968,-0.8368882624856885,-1.0505942583407086,0.25937178938338074,-0.765259250076008,-0.4468146067457818,-0.4976477254476201,-0.3500071310939043,undefined,1486821738340
903d185fccf839df,-0.6224018484267756,-0.5681207621132053,0.6618507766256021,0.6506879650394084,-1.243912255092921,-1.845240686055639,1.9191501412662084,-0.8884601992449401,-0.10820033031876672,-0.27540335647634395,0.5747146009681615,-0.363428298847078,0.8145401626559715,-0.8215534715430334,-1.0760220875028563,0.30627550942221243,-0.7239240737054767,-0.8363626285812517,-1.0437233893685838,0.30171751173551814,-0.7519041295301309,-0.44717055043625725,-0.48855765165227266,-0.34982829156831446,undefined,1486821739820
903d185fccf839df,-0.6598242419840107,-0.5399440275893825,0.47108490863652247,0.471397363079021,-1.2671887865967424,-1.8817771327323034,1.9371353865332357,-0.8077272287543131,-0.19018356767182962,-0.5413898900221686,0.4557912858115888,-0.2918394415857183,0.13129456327985742,-0.8048884731343616,-1.0623378741057965,0.11027648307846594,-0.7482425361096815,-0.8271671947713919,-1.0407567419483648,0.2628364369432578,-0.7536901610544865,-0.4553158010845,-0.4928105605147102,-0.3460365620411669,undefined,1486821741363
903d185fccf839df,-0.819215926553166,-0.5763390305428895,0.5304202953139989,0.544527362434846,-1.357250350433721,-1.8705315653028396,1.959025893610104,-0.6739003111190727,-0.1885220803694088,-0.466556804601418,0.4900293239641462,-0.37235652381483075,-0.5301916221033868,-0.8141468199733732,-1.0370746854265687,0.35072880782107835,-0.7452677638726775,-0.8229051232612571,-1.0347604753512565,0.27087442507581255,-0.7494391975697425,-0.45137405543411613,-0.4902972570576106,-0.35021376121326675,undefined,1486821742868
903d185fccf839df,-0.7956537177362031,-0.4765463931782766,0.7109774820447406,0.739997989735824,-1.37365603491348,-1.8896825713308447,1.9733188948141727,-0.5984238385200884,-0.19731570712519994,-0.417837209729544,0.481461717005455,-0.4208188851426014,1.615286597593583,-0.8076659674729841,-1.0307588790539697,0.22140993399486186,-0.7876243994395993,-0.8471602974072516,-1.0319057759141002,0.14200483648207143,-0.7837221169668127,-0.45592971036274255,-0.5120541307625054,-0.3698727634620531,undefined,1486821744365
903d185fccf839df,-0.8552523240648902,-0.4454345544358545,0.8768605471788258,0.9783202277062347,-1.3665589067376611,-1.8677434666916068,1.9556071428222335,-0.698069263942915,-0.2171159493350975,-0.41171272972704215,0.4881161078952564,-0.37828734527033564,1.5326008244206775,-0.8243309820701241,-1.0591799690789385,-0.12613462244071447,-0.9527267401173255,-0.8654055078982046,-1.0668898304137102,-0.21563946069779596,-0.875615954988057,-0.4690528456518793,-0.5871842245175567,-0.5113806705261048,undefined,1486821745830
903d185fccf839df,-0.8413922083354375,-0.5640116571263556,0.5048998628529011,0.45741800660677534,-1.4106845488531654,-1.9282454556848923,1.951515165490235,-0.7753885612830435,-0.2182341858506035,-0.4731727413156893,0.35166275116617984,-0.29371204759448166,-0.8043602384135473,-0.82247932889079,-1.027600992432696,0.09815286780525223,-0.8625531362750635,-0.8672357277184942,-1.053413973087307,0.10752771275258526,-0.8086414465005946,-0.4699152347457503,-0.5855196017754064,-0.46434494640403084,undefined,1486821747321
903d185fccf839df,-0.8358481206371647,-0.7641839906956913,-0.08079431626624287,-0.07417851914679688,-1.4603336065653603,-1.9758271537223915,1.9453377430125864,-0.8824340445275821,-0.2356655861226937,-0.5238527421609632,0.19629163018723889,-0.0980448393152453,-0.7869527072192514,-0.8632160226055048,-1.0086536064449505,0.257780779814503,-0.8289876928560506,-0.8802309285486792,-1.0792881789385098,0.13518332294154772,-0.8202877328405809,-0.46001453295435407,-0.5743322524627927,-0.43756694084469816,undefined,1486821748833
903d185fccf839df,-0.7831795462941467,-0.8410830285195738,0.04425580279313637,0.014914756458483629,-1.4366970717701781,-1.957500699417657,1.9271973409124863,-1.0029132793700244,-0.24179307411041479,-0.6349829353317406,0.26013617625802177,-0.31869248634528413,-0.4300983177361854,-0.8715485250475343,-1.031811520198117,0.13654441509695436,-0.8360717702732176,-0.8679576839067502,-1.0914976142975694,0.09756491915464194,-0.8261823741481262,-0.4562525230838283,-0.5762110048101603,-0.42224245832882834,undefined,1486821750319
903d185fccf839df,-0.7707053921047952,-0.7037213728192075,0.509366065602068,0.4897415499093053,-1.4081234087541867,-1.9138670613456783,1.9418453629653434,-0.866051236825536,-0.2395179537024643,-0.6355037392175186,0.33183065408140594,-0.34476434646536225,1.7545468471479502,-0.8678451798365424,-1.1339169123780586,-0.2675771398048662,-1.0334956027007054,-0.8730240390313738,-1.1376485782590113,-0.4219478325448214,-0.9465465493659786,-0.4682413084579993,-0.5676448483691309,-0.5114155904271567,undefined,1486821751824
903d185fccf839df,-0.49211649487826564,-0.6497159345360553,0.7371357982488912,0.7364506055338468,-1.1644655346687016,-1.9156302963500695,1.8885733844449821,-1.1527777555120338,-0.17308061131397873,-0.5310244749724679,0.33219457829612975,-0.29356881613836716,1.1539870209447416,-0.8048884860851362,-1.1244432046597181,-0.3807311932667978,-0.9923407090578419,-0.8423535922038046,-1.1267265567190836,-0.4863749252899892,-0.9439223456255703,-0.47729873540650314,-0.5445026389330527,-0.519557788383782,undefined,1486821753370
903d185fccf839df,-0.4519220747245991,-0.6573471295116332,0.6561085522533804,0.627208112117893,-1.1773637959302055,-1.9617375859853161,1.9042759487828256,-1.0803209071243778,-0.15796337172197256,-0.6210594166478393,0.23833572183708807,-0.12048085712623051,-0.5911179812834225,-0.7817426027991389,-1.1023379210073485,-0.3888136741107441,-0.9921777093167348,-0.826660557344904,-1.101587015416577,-0.4630770794029533,-0.9220807789487458,-0.4744452248529994,-0.5783616972961649,-0.5205569885630477,undefined,1486821754919
903d185fccf839df,-0.49211649487826564,-0.7483345419044253,0.5202121223295598,0.4971514030719997,-1.1201547489902401,-2.0095056238887103,1.9753096377045216,-0.6280300591801059,-0.15473391954419666,-0.5595885227088704,0.20300576485159352,0.03913889718926434,-0.5867660984848485,-0.7539676011344277,-1.0823378975565725,-0.41306091878953227,-1.0042173019567042,-0.8085420053565423,-1.0773150783997452,-0.47196198251969684,-0.9063286805436338,-0.47284366683117546,-0.6041933778959052,-0.5321986454314043,undefined,1486821756327
903d185fccf839df,-0.7166508734743808,-0.9391146428108168,0.18589394881527976,0.17884486830944868,-1.276250485629618,-2.0716823354261567,1.9900759941043504,-0.6157830119344897,-0.24137721614227645,-0.49771367254594745,0.17297755694365238,-0.1834341868538385,-0.49537655971479505,-0.7502642753495976,-1.0076009689819199,-0.4837821916039689,-1.010810454384464,-0.8243047026623341,-1.0233626698826137,-0.4269985233512435,-0.8907863729369059,-0.4670543883543171,-0.5884718766068493,-0.5579411818673258,undefined,1486821757828
903d185fccf839df,-0.6487361701036943,-0.9367665828183313,0.0857263784739456,0.06201924601654251,-1.1544369749928758,-2.076035683806116,1.9722801020193577,-0.7130283496359006,-0.2661531846299935,-0.5476787459612519,0.12969331273781723,-0.0474570403457599,0.4837970699643494,-0.7428575719768392,-0.981285164926363,-0.5464210401039024,-1.0396837016838627,-0.8306059821307125,-1.0003991372092995,-0.438501161076484,-0.8851688024930218,-0.47127964373797204,-0.6251995321865715,-0.5538800204328882,undefined,1486821759442
903d185fccf839df,-0.578049353873052,-0.9279613286185181,-0.041237900088490695,-0.10450339490539319,-1.0982256427681898,-2.07975082040798,1.9272026047095008,-1.005445816088436,-0.265735172935185,-0.522191253359387,0.11888074593029695,-0.03322951841548806,0.205276570855615,-0.7650775979150798,-0.966548291979571,-0.5140913428458893,-1.0462642253468617,-0.815660234957944,-0.9850481340112945,-0.4135556798708314,-0.8682005259033855,-0.47923247345057796,-0.6424372963958618,-0.5534193251807017,undefined,1486821760886
903d185fccf839df,-0.5628032075926788,-0.8774780168590846,-0.09483131653069493,-0.13787206174469396,-1.0984724976646356,-2.048236213918111,1.9218588461664163,-1.0149741534232462,-0.29238495986718244,-0.6592772318015728,0.08573686605965615,0.2867976619752154,0.47944518716577544,-0.7798909787590476,-0.9707588197449921,-0.5322768081527922,-1.0451496958828863,-0.7946158642142305,-0.9879728010495014,-0.49287307446477363,-0.8775226096278509,-0.481236392077218,-0.6144586633291428,-0.5490531226102323,undefined,1486821762330
903d185fccf839df,-0.5073626066532292,-0.9062417517670326,0.07934601622172172,0.020599193214990527,-1.2029134666135632,-2.054790693139229,1.898348375965855,-1.202760363031818,-0.2589226031643101,-0.6010511725892181,0.10034470819087586,0.08997361281503576,-0.4605614973262032,-0.7447092737215779,-0.992864096035128,-0.5565240952286628,-1.0090650627326052,-0.7956734656644016,-0.9846353217903127,-0.6002926287806967,-0.8977130533803311,-0.47621093995286096,-0.6017643414682518,-0.5107169108329564,undefined,1486821763843
903d185fccf839df,-0.5988395878516981,-0.8563454476987222,0.189721759547495,0.16351081196990974,-1.3072412899583026,-2.048059191365619,1.917977243683813,-1.088552838983261,-0.24998715254760104,-0.4830280194189489,0.1283827078669946,-0.044588818075983416,-0.5127840909090909,-0.7567451213745994,-1.0202325670026506,-0.560565356849177,-0.978532253009447,-0.791481055377555,-1.0200531793839631,-0.6486745438882859,-0.9186742668721978,-0.46642716092105374,-0.5867372402456945,-0.4976361163713053,undefined,1486821765415
903d185fccf839df,-0.7111067857761081,-0.9080028113753928,0.19482635431361342,0.19655808644966075,-1.3584949199114111,-2.074440154299039,1.902753300433788,-1.214688451811257,-0.22887026279518058,-0.40747092161500725,0.1775999405568735,-0.009602219104564819,-0.36482007575757575,-0.7576709463454196,-1.0202325670026506,-0.5827920131147903,-0.9938080702657072,-0.7774599183858625,-1.0321016872548214,-0.6787323095475225,-0.9190832463090433,-0.4654971078733617,-0.5837366742450246,-0.49732556887537743,undefined,1486821766837
903d185fccf839df,-0.6016116317008344,-0.8041010544099341,0.14314760564836507,0.10164334433110613,-1.2948367393819231,-2.039196435911078,1.9494034181198618,-0.8702274956428079,-0.23428780989888948,-0.49836527941753667,0.18552170935060847,0.015934163710201878,-0.30824559937611407,-0.787297636804095,-1.0286536114901421,-0.6494720525734342,-0.9952888177976148,-0.7729318636952839,-1.0359079525368946,-0.7326422679030973,-0.9321364927613689,-0.4546495102386518,-0.571219481909075,-0.5025860998029489,undefined,1486821768350
903d185fccf839df,-0.5115206810532862,-0.7489216153585314,0.18525606507222703,0.15813575691537254,-1.1434004221686247,-2.013388465489559,1.9691164405961785,-0.6893195582314261,-0.15965698885644897,-0.5565055396445342,0.1645836840225597,0.01577500514488404,-0.26907865418894833,-0.7965559771677193,-1.0307588864162034,-0.6110805052817321,-1.0218581176694028,-0.7773142600445658,-1.0356560672780464,-0.7171822281903824,-0.9289638947211646,-0.45642200476399997,-0.5718887921579121,-0.5138221568400649,undefined,1486821769836
903d185fccf839df,-0.5683472952909515,-0.7606618860929668,0.31349661939466766,0.26178303105528955,-1.043012019501283,-2.0010970700680613,1.9664471885092951,-0.679777450822248,-0.13754558134960262,-0.5230077461959484,0.13071453231114044,0.04838148413606196,-0.49537655971479505,-0.7641517794196468,-1.031811523879234,-0.4938852608610901,-1.02704727329854,-0.7402792051201977,-1.0382518842784545,-0.6189863417813478,-0.894083759323793,-0.4602006217249231,-0.569279844615914,-0.533080731700367,undefined,1486821771342
903d185fccf839df,-0.3909374550976963,-0.8522363280978764,0.3728314977982453,0.32947524909042625,-1.0022703768307684,-2.0348710388742393,1.9717383677434557,-0.6510851481661833,-0.1281647460747397,-0.5812080785946594,0.09648373505725438,-0.18871012846569024,-0.40398702094474154,-0.731747594622349,-1.036022055325772,-0.4817616455878764,-1.036846124956501,-0.7203620981406665,-1.0336129980860966,-0.5511253919725984,-0.8699975255659508,-0.4665776234781471,-0.560685570071507,-0.5274518870902192,undefined,1486821772830
903d185fccf839df,-0.4020255614834223,-0.8575194776949651,0.4334421436879285,0.42959776228859536,-0.9883538303321355,-2.0336877854512334,1.950957644013377,-0.7856978170712435,-0.08429578007375348,-0.3553583735477617,0.14509189219727292,-0.023535156101357247,-0.49537655971479505,-0.7456351245939472,-1.0360220406013043,-0.43730824826248504,-0.9807964515294029,-0.726783703494622,-1.0178701732281983,-0.4685897247305226,-0.8553405401498335,-0.47090997324655354,-0.56915821613091,-0.5233517393654458,undefined,1486821774546
903d185fccf839df,-0.38400738860661754,-0.8252336162632983,0.5852894792423087,0.5397309334907586,-0.9412453362455196,-2.0304478136969273,1.9655609546935031,-0.66991244333911,-0.04395915220750755,-0.4600475700238937,0.17517338101857594,0.016161825451275955,-0.31694936497326204,-0.750264262398823,-1.0528641811119237,-0.3463808934632492,-0.9758380659191249,-0.7299755070803441,-1.0285193187769117,-0.49099446277409564,-0.8623099536827717,-0.47690114931054034,-0.5533296525401203,-0.5188694304615941,undefined,1486821775913
903d185fccf839df,-0.2828282798152287,-0.7183967843072326,0.5023473113328926,0.4974225197182778,-0.8832340026579604,-2.0219274572822052,1.981529133895023,-0.5450188529346562,-0.04204724082948052,-0.4392680892992117,0.19842728741342738,0.03979522504907103,-0.22555982620320855,-0.7234150921803194,-1.0381273081651317,-0.29384511422043696,-0.9174709211581165,-0.7269483596426676,-1.014210840650331,-0.455131484272056,-0.8499765813200916,-0.476349174546649,-0.5364000910011623,-0.5154456992699907,undefined,1486821778722
903d185fccf839df,-0.2828282798152287,-0.7178097693091112,0.49596745735456754,0.469419584273732,-0.8799425795736422,-2.022372341975081,1.9614111174952178,-0.6799081327458718,-0.041559347081364446,-0.3874920083288994,0.20315505222284427,0.04093660244505048,-0.22555982620320855,-0.7234150921803194,-1.0391799382659286,-0.3039481552128366,-0.9153854360042935,-0.72772731170945,-1.0162049317501842,-0.45608618786280114,-0.8512128642638138,-0.4748593562528117,-0.535276337989537,-0.5160761422824743,undefined,1486821778886
903d185fccf839df,-0.3244086787617012,-0.7242669489024427,0.49596745735456754,0.44963806141242196,-0.8828431398828609,-2.022190660621599,1.9481174510350305,-0.7664725438081494,-0.061544992254947015,-0.27007487371645167,0.2028980388554717,0.07404114938181071,-0.4779690285204991,-0.7076759122670806,-1.0265483476074315,-0.25747411294482736,-0.9237344701025111,-0.7543193424046022,-1.010929336422574,-0.43415880313584165,-0.8581620548865672,-0.4638286086882435,-0.5264147882845241,-0.4896877296296063,undefined,1486821780327
903d185fccf839df,-0.37707732211553874,-0.7254409715916874,0.46789498164735993,0.38050636861111864,-0.8993619735077305,-2.0365108238861365,1.939007806599352,-0.8460085371865053,-0.0972450324665837,-0.3165190650923986,0.17576082871885695,0.07836815114052463,-0.5214878565062389,-0.7706326254446486,-1.0244430800436042,-0.21100015547098275,-0.937302682922037,-0.7886438980939098,-1.0009378902582309,-0.4176978649537613,-0.8711366718114238,-0.4658026112179849,-0.542433558832785,-0.4633228680504369,undefined,1486821781833
903d185fccf839df,-0.29668841279738617,-0.7536177353435025,0.5048998628529011,0.43199211786754926,-0.8717243075398797,-2.0203622079234673,1.9526354617657482,-0.7379665211533764,-0.08102597326627835,-0.1478536900009231,0.15184391902369687,-0.06843441331647779,-0.38657948975044565,-0.8169243143119957,-1.0433904807558172,-0.2069589079828292,-0.957200917980247,-0.8147862894945239,-1.0175903005606828,-0.43194142630499865,-0.8921883547668751,-0.4644951702785384,-0.53718187983217,-0.46483569808700087,undefined,1486821783340
903d185fccf839df,-0.36876124232624424,-0.6955031482315119,0.5935834927236907,0.6641265806793325,-0.9168476598834944,-1.9950526937287179,1.9481227106419576,-0.7686891213263195,-0.07786652595284617,-0.036886277694759155,0.18190463588100578,0.004462944795705497,-0.5606548016934046,-0.8243309917832051,-1.0844431651203998,-0.27161838729301974,-0.9819731257358918,-0.8314989273553247,-1.035865970313647,-0.489408423754716,-0.9162983967301686,-0.45431458674091846,-0.5347920047962964,-0.46779063207503113,undefined,1486821784833
903d185fccf839df,-0.3853934019048333,-0.7307240919607837,0.9598022068143431,1.016986810610043,-0.9293036377347509,-1.970782021804836,1.9425685552515195,-0.7919185781371064,-0.14874734897472536,0.005282881990341596,0.16943424277608624,-0.05516247231926234,-0.5606548016934046,-0.8335893256714422,-1.0833905350196031,-0.31203055126261825,-0.9683186854883926,-0.834741394922326,-1.0448498752590865,-0.409167122016665,-0.9102284356924952,-0.44900838040890884,-0.5480230990232294,-0.4836990205301939,undefined,1486821786335
903d185fccf839df,-0.40341154027622833,-0.6855239078774445,1.2188343421575363,1.1984715280831428,-0.9499778901784365,-1.9645559650715203,1.9071450606953368,-1.0101519090493922,-0.13566026350990604,0.24843376819183652,0.1319785391631971,-0.04450610540959522,-0.7956564728163993,-0.8326634877498473,-1.0865484253219935,-0.3665869471833269,-1.0009347020620252,-0.8328985085613549,-1.037965013558299,-0.44978822135975277,-0.9121689979041716,-0.45271808548357245,-0.559413533513701,-0.5078265475798365,undefined,1486821787839
903d185fccf839df,-0.09294431993803165,-0.6773056832897489,1.3840792694116193,1.3813765988746625,-0.853796338896166,-1.9592243373594216,1.8704671650760614,-1.2149912525655526,-0.1251374667637368,0.3997806634126718,0.13848854133744362,-0.010179548199617515,-0.7608414104278075,-0.7900751376181049,-1.0549694413135173,-0.38275180994469415,-0.9589016435322553,-0.8164201893563943,-1.0372023616376378,-0.451420455526999,-0.9028759545503869,-0.44936892977717746,-0.5739153979705947,-0.5162881064581778,undefined,1486821789342
903d185fccf839df,-0.1289806311862315,-0.6679134287058105,1.4899893182621247,1.4246532092560225,-0.8938488431119491,-1.9787713124009165,1.8982536988510765,-1.0480985822596085,-0.09026363370296053,0.11093358546125236,0.16764763211304287,-0.10281519835221135,-0.7608414104278075,-0.7863717794563384,-1.0223378272042443,-0.41710215214532503,-0.9512818792708619,-0.8230191165685767,-1.0232577175787712,-0.4429667088692892,-0.8996225988945538,-0.4394664104451666,-0.5703359131343374,-0.5256375921383917,undefined,1486821790840
903d185fccf839df,-0.22184366018832583,-0.656173143357379,1.540392553578217,1.4379526574875983,-0.9337882086833569,-1.9731229076169938,1.9464948617742,-0.7426168416862385,-0.056461457150561056,0.17786743269305533,0.19012222849288585,-0.014838256991317779,-0.8957497771836007,-0.7910009884904742,-0.9939167408603924,-0.4413494533535563,-0.9754997062204137,-0.811993461449064,-1.0137840362634567,-0.39614003733065434,-0.8822024442721117,-0.45395126351096504,-0.5745216748171191,-0.5416581884519258,undefined,1486821792342
903d185fccf839df,-0.2689680778222517,-0.6778927129018665,1.2896539234425068,1.267140769943033,-0.955264740846832,-1.976914908226474,1.9632993289523766,-0.6372093061488485,-0.07473800915355998,0.10363475854866933,0.21871327115213401,0.06610650278198481,-0.7651932932263815,-0.8132209885271657,-1.0223378198420106,-0.5120707120356321,-1.0249557494814008,-0.8163315274915842,-1.0163308756305471,-0.4125701788910882,-0.8897346776795974,-0.45411507625386766,-0.5606987533446043,-0.5213658563613964,undefined,1486821793848
903d185fccf839df,-0.19135133312216954,-0.6972642078398723,0.9770283716571094,0.9579741378632377,-0.9083413891128579,-1.972400842301069,2.0075063702197022,-0.3276759975758894,-0.05898321800074723,0.01695622068148865,0.22750518803865383,0.04419562600052697,-0.6650999888591801,-0.8122951506055709,-1.0497062760850657,-0.4938852467287293,-1.0205638322462063,-0.8252546445350696,-1.0280855180318231,-0.406918949062281,-0.896674715518613,-0.4681421203100003,-0.534940527130736,-0.5210884993577632,undefined,1486821795330
903d185fccf839df,-0.2772842438750705,-0.721918881602959,0.923435463488804,0.9270614264506959,-0.9993286613901807,-1.9839725028622364,1.978938781149658,-0.5559807562023216,-0.0832345998483607,-0.05667271601629021,0.25939630119261664,0.0296633011161884,-0.8913978943850268,-0.8317376757298016,-1.0581273463403753,-0.5363180132438634,-1.028573657296813,-0.8283387881834728,-1.0289671151317987,-0.41891434028621927,-0.9019000363494073,-0.46288687843006227,-0.5101358724561628,-0.5203201311718955,undefined,1486821796842
903d185fccf839df,-0.3022325004956589,-0.7489215569025467,0.9011049580168687,0.8521805425585898,-1.0138314938563282,-1.9945332734746466,1.955436198788205,-0.7191597390730802,-0.056653915146167175,-0.14461489935952065,0.175206026556301,0.025353405346046402,-0.8783422459893049,-0.8104434812377685,-1.0391799456281623,-0.46357616614861274,-1.0131742836901858,-0.8173447985187237,-1.0375591989128266,-0.3631873678854348,-0.8914135657004558,-0.4746128578783064,-0.5011657622084449,-0.5089662539652255,undefined,1486821798363
903d185fccf839df,-0.35074303494402975,-0.7964698740483522,0.9259872525979643,0.9791252507252635,-0.964388148830576,-1.9904734097258587,1.958726082397465,-0.699273178457658,-0.10838426739451426,0.0006921664892279016,0.19443831194487962,-0.033595263006139006,-0.847879066399287,-0.8048884796097489,-1.0412852095108729,-0.4655967404294268,-1.0038253027320674,-0.8092892944711343,-1.0393783700343815,-0.3672987515406739,-0.8915647585734288,-0.47024474560384566,-0.5242711222388684,-0.5038325799974953,undefined,1486821799845
903d185fccf839df,-0.2620380113311729,-0.7624229457013271,0.847511795711614,0.8704755941567871,-0.9703332885805979,-2.004544344068813,1.9844902925950885,-0.5354815577984177,-0.12747953799311137,0.07497421226794218,0.17172385862675504,-0.11908813549241594,-0.691211285650624,-0.7919267810843581,-1.0107588592843104,-0.4413494392211955,-0.9810152793081083,-0.8079213786035977,-1.0245031499576394,-0.34818928354199263,-0.8796265318875879,-0.47380022394718924,-0.5571231545597767,-0.5003345398006982,undefined,1486821801338
903d185fccf839df,-0.18580727992930654,-0.7729892302815082,0.9291771795871269,0.9804595833129103,-0.9636887295400719,-1.995618699335241,1.9538451745015908,-0.7334536674173614,-0.08881971340991868,0.07591904152322705,0.20681676408770347,-0.02119118909167034,-0.43880208333333337,-0.7780392705389215,-1.0128641342103717,-0.4534730827591308,-0.976192397742884,-0.815520911431718,-1.0341237651516357,-0.3531629789979275,-0.8872233120149482,-0.46103235573322043,-0.5799467782272479,-0.4990287975821962,undefined,1486821802820
903d185fccf839df,-0.2384758542723246,-0.7453994669138183,1.1282368069206392,1.1240528580397195,-1.0791559635496741,-1.9969789760029635,1.9259218972315972,-0.9402036115948621,-0.0633901733888162,0.055645319854522986,0.2312592970225795,-0.02496015733406057,-0.43880208333333337,-0.8252568232294126,-1.036022047963538,-0.4858028082818653,-0.979795541363663,-0.8286364368851202,-1.0305693859175116,-0.34899000040314454,-0.8929830346207591,-0.46191963147773735,-0.5899645954439645,-0.4930616813056787,undefined,1486821804330
903d185fccf839df,-0.1206644823861175,-0.6391496645698702,1.2226626611636504,1.1786228669986845,-0.9820898365545933,-1.9603027750398225,1.9211961283609247,-0.9183756329868031,-0.018922178411487557,0.18082041271746438,0.27745078413888075,0.1227556862086382,-0.17333723262032086,-0.8280343046172607,-1.0381273081651317,-0.3867930574328477,-0.9719152102419968,-0.8227214673797028,-1.0260424487052977,-0.3512073746626865,-0.8856616152732545,-0.46457442487845446,-0.5785145206850035,-0.4967115938022767,undefined,1486821805845
903d185fccf839df,-0.2911443250991134,-0.5933624362604173,1.354092888338304,1.3258056132558684,-0.848848916280053,-1.9458684778508244,1.9048229552359164,-0.9650895460876732,0.00616558505112867,0.03975922016197982,0.28079408968101083,0.12081616472174736,-0.6476924576648841,-0.8215534715430334,-1.051811543648893,-0.3807312639286016,-0.9447803108255256,-0.8203782771394179,-1.0423660075997287,-0.36129335537994406,-0.8900140821767821,-0.46515653168606363,-0.5299852469657464,-0.5095610288729319,undefined,1486821807348
903d185fccf839df,-0.3050044925866807,-0.6420847541744733,1.181829969225894,1.0802664424411141,-0.7122342880570726,-1.9510743270379327,1.9606432159313547,-0.5703205371656102,-0.0118272937018408,-0.17575000758541942,0.26697206108065946,0.011006854237875788,-0.8739903631907309,-0.8039626222619922,-1.0497062908095334,-0.29788629104678666,-0.9935657766949759,-0.8142099900530049,-1.0256856105737204,-0.2642369533550554,-0.8626963306501737,-0.47445367596338406,-0.526086731657383,-0.5234641697422975,undefined,1486821808834
903d185fccf839df,-0.18442119762027132,-0.6643913679450746,1.2966719153008341,1.2320264796302731,-0.6690549339701234,-1.9634402592555757,1.9783155172050129,-0.4502624252330067,0.012659171461254852,-0.25791196639524866,0.24232668143185102,-0.0003563266391172486,-0.8609347147950089,-0.8095176303653993,-1.0107588592843104,-0.271618373160659,-0.9619430626416354,-0.8239753886332666,-1.0117339695938703,-0.28678027692300184,-0.8682973905858681,-0.4544547008884347,-0.5219878081512503,-0.5099243693929367,undefined,1486821810344
903d185fccf839df,-0.18164913651843007,-0.7172227616179879,1.2641332368444598,1.2849389616073226,-0.7622639173518971,-1.9836207898174656,1.9508471912203822,-0.6953945743081871,-0.03827176785584576,-0.07627904847732814,0.25742115926874515,-0.0564389221964247,-0.6302849264705882,-0.7891493126472846,-0.9876009455311439,-0.2514122911758597,-0.9577031871479132,-0.823487752208184,-1.0072350203775615,-0.26616175809347953,-0.8674273650223794,-0.4375443970935017,-0.5169067012199733,-0.49445189381322163,undefined,1486821811852
903d185fccf839df,-0.142840764168389,-0.6438458137828337,1.2047983584408821,1.219366451381752,-0.7298022616335671,-1.9842706472539082,1.956943080886722,-0.6473225083135464,-0.02866691492629735,0.043319081801594,0.265332473202483,0.017235856456869626,-0.6302849264705882,-0.796555944790783,-0.9907588468768851,-0.267577153937227,-0.9407061247539542,-0.829611708727612,-1.0046601946661722,-0.3018861521615928,-0.876076434594398,-0.44192139282582016,-0.5393445254122853,-0.4793219443894906,undefined,1486821813337
903d185fccf839df,-0.33272479305640545,-0.6379756345736275,0.8219913632505161,0.7905977428810246,-0.864328893531784,-1.9937366749750096,1.9837329228153417,-0.511874707704206,-0.11974521859085036,-0.021473426677874163,0.2436491697623974,-0.10002243436012638,-0.669451871657754,-0.7641517858950341,-0.9802325127388648,-0.2877832217896655,-0.9359099195315729,-0.8116324824469229,-0.9785271063231678,-0.3446938295195209,-0.8649017456884353,-0.44638559978314934,-0.5772486893763067,-0.4674804983792618,undefined,1486821814838
903d185fccf839df,-0.21352751138821185,-0.667326399093693,0.8475115415746645,0.805387688315997,-0.8758488749670648,-1.9944074950239523,2.0020600299623816,-0.39700960074778757,-0.13933585563882772,0.011042424298689369,0.2139361444542856,0.014180365412519415,-0.7303782308377896,-0.7984076335847471,-0.9833903809545539,-0.3382984267516636,-0.9392298741748336,-0.8162301996342227,-0.988574527115217,-0.38131133346390567,-0.877511606117626,-0.4622688725699842,-0.5897990810181577,-0.4652051583658286,undefined,1486821816351
903d185fccf839df,-0.18580721091848706,-0.6696744737001747,1.1856577799581092,1.2405863483982533,-0.887955137458581,-1.951782418842553,2.035445413740216,-0.13101989249284424,-0.12099809036907042,0.3470317468451671,0.33736936349809277,-0.011269888756714488,-0.6041736296791445,-0.8159984828657882,-0.9981272759880473,-0.3463808793308884,-0.9807697781119907,-0.8101505738478797,-0.9982930968540349,-0.36874620171048966,-0.8710273433827089,-0.4720489928791751,-0.602730699424142,-0.49097046546895423,undefined,1486821817844
903d185fccf839df,-0.1899652163077246,-0.7054824616555602,1.497645448000454,1.5646009818530497,-0.925117358213879,-1.9624270428700221,1.980019616231672,-0.5265939328262317,-0.13414576002244016,0.5033123061238651,0.34731408745352266,0.001649450019507303,-0.8783422459893049,-0.8243309723570432,-0.9886535609074731,-0.35042215508376345,-0.9768939580955239,-0.8100302484218459,-0.9940040517376952,-0.3681918577282726,-0.8677160636804019,-0.47540067000976954,-0.609157177641265,-0.49640073327485373,undefined,1486821819339
903d185fccf839df,-0.02502956480923059,-0.7213318666048376,1.4357585263507666,1.5074063106584858,-0.7859724531266353,-1.9798241304464081,1.9960377695554148,-0.41206684463501875,-0.1240108621691334,0.4576556105964874,0.32836394676042335,0.033851142675007516,-0.8696384803921569,-0.8604385088407204,-1.0160220171505283,-0.34031904342956,-1.0051150385192478,-0.8381611845136544,-1.0107614135732401,-0.3577363114662946,-0.8846274495622792,-0.46798067681288263,-0.6061134852961519,-0.4995446423702535,undefined,1486821820848
903d185fccf839df,0.08030751486598606,-0.7753372902739938,1.2603054261122444,1.2534266556356177,-0.6084413230988908,-2.0211285283419245,1.9371248537015981,-0.8032093190910288,-0.18539159984664036,0.29985680622333133,0.212554485138377,0.07505806723658061,-0.6215811608734403,-0.8863618540884038,-1.010758874008778,-0.3847724690196728,-0.9899601461931429,-0.8600161727844507,-1.0221312313395963,-0.34846644846538866,-0.8970019366962323,-0.4589287665232127,-0.6082431544778827,-0.5047951902829463,undefined,1486821822345
903d185fccf839df,0.15238030988943438,-0.7806204398710824,1.4638310020579741,1.4057809903559784,-0.4919043728403095,-2.0078588521376965,1.9580397042172144,-0.6135801926743809,-0.1530022753073245,0.3017658871146049,0.23655117986788732,0.004500421106430487,-0.6259330436720143,-0.8863618540884038,-1.0065483388811232,-0.3504220985543204,-0.9799689790304074,-0.8698828983195974,-1.0195074271262672,-0.3208262388489175,-0.8958221017396765,-0.462306305891506,-0.5880542459188334,-0.4957382776508494,undefined,1486821823828
903d185fccf839df,-0.15947295825238778,-0.783555485633697,1.200970039434768,1.2069232170023614,-0.660250368676947,-1.9938018931729686,1.8645790283120667,-1.25681543070014,-0.17067066235207298,-0.12366576729970093,0.19758817032742834,-0.02757108408579301,-0.5345435049019608,-0.8669193160133986,-1.0223378198420106,-0.37466941389491243,-0.9677501338340709,-0.8797242927333612,-1.0355371210282465,-0.35465662506949913,-0.9134957606331234,-0.46285980512300195,-0.5715047798044178,-0.5039666896220122,undefined,1486821825341
903d185fccf839df,-0.1927372774095658,-0.697851252065986,1.1703457746184,1.1854103990085023,-0.8481597709755374,-1.9581598736601131,1.9123468318493428,-0.9499789723989353,-0.16792916978553882,0.09270733416216166,0.15816120902054837,-0.08062305480122808,-0.7347301136363636,-0.8308118119066578,-1.016022028193879,-0.419122797087943,-0.9230988912868512,-0.8664187787038773,-1.021270623204156,-0.3589373927689437,-0.9048821782423632,-0.4712597385897774,-0.5515617939413398,-0.5045468473427176,undefined,1486821826848
903d185fccf839df,-0.16085893704519377,-0.7043083732033327,1.0880422528628848,1.012227074816056,-0.8282672326590754,-1.9510417189763833,1.9872437141056352,-0.438640811997741,-0.14458025115972672,0.20159268346233292,0.16794391486321725,0.02368398186127735,-0.7913045900178254,-0.8234051473862231,-1.027600992432696,-0.37264876895229454,-0.905484954689527,-0.8474706105456473,-1.0157641332766594,-0.3306196535991069,-0.8906725950692844,-0.4713751778297778,-0.5497168964391839,-0.5092414363841852,undefined,1486821828338
903d185fccf839df,-0.11512049820407395,-0.7219188377609705,1.2143686476822684,1.095237686904468,-0.8078604113411724,-1.950636431623386,2.0142754958578664,-0.2390841323980993,-0.166772837283357,0.32067756254141416,0.15872953515801372,0.05776130963003558,-0.8043602384135473,-0.8095176562669483,-1.0465483784204415,-0.4514524943459559,-0.9216258538152124,-0.8415556409461066,-1.0221312306911878,-0.3254611728398976,-0.8906822913451279,-0.4800035928929514,-0.5347608965886208,-0.512174774706864,undefined,1486821829898
903d185fccf839df,-0.059679897264624394,-0.6737835640730283,1.1142008232039848,1.030416149733766,-0.7555370690240966,-1.9652989931290574,2.024452840499785,-0.18031458222926416,-0.15599052512320596,0.49564308658786366,0.16843592047196074,0.011973515430173397,-0.8043602384135473,-0.8169243207873831,-1.05286417374969,-0.4938852467287293,-0.9313540531646892,-0.8576729836902556,-1.0386856852682256,-0.3497137254947837,-0.9070437540107359,-0.47120100335886317,-0.5456246863482811,-0.510684631233557,undefined,1486821833362
903d185fccf839df,-0.0887862800433844,-0.6978512228379936,0.8813264957910432,0.8567299764785627,-0.6731589208928584,-1.974250259465485,2.077866822122052,0.18048732781548105,-0.11383531363212863,0.3730710301167268,0.1744972850457952,-0.09692620115741456,-0.8000083556149733,-0.8335893191960548,-1.047601015883472,-0.49792645181980055,-0.9471558714170912,-0.8534172459044682,-1.0357190378602406,-0.3256767515069396,-0.8990750226857771,-0.4746659611960967,-0.5513575326245144,-0.504408998412216,undefined,1486821834330
903d185fccf839df,-0.5350829416283637,-0.7553787511098743,1.014670882468754,1.0659555854168539,-0.8363106518502277,-1.9862574865476401,1.9775186914693763,-0.5407776752569065,-0.0677775407054172,0.4977067875283369,0.2965417085964062,-0.07019344243360111,-0.7956564728163993,-0.8252568102786381,-1.0644431343073901,-0.5302562056072566,-0.9391108735633588,-0.8584646017329797,-1.0512589548846283,-0.36306417624278464,-0.9129293186987336,-0.4636194680021351,-0.5250724377266552,-0.5012778989321631,undefined,1486821835831
903d185fccf839df,-0.3244086442562915,-0.5945365100986486,0.6331401630383924,0.6239491898906123,-0.8225895298303453,-1.910433761910423,1.9642960207987725,-0.5546307165243745,-0.00376264240794161,0.3289434141485035,0.32256042599956863,-0.10913492656955079,-0.8913978943850268,-0.8502543046539521,-1.0686536767972787,-0.4797410147776192,-0.9733422001015397,-0.8557604338138166,-1.0668828336945895,-0.360384844917719,-0.913848389478925,-0.4652649141684061,-0.5501064878219956,-0.5018342555508326,undefined,1486821837338
903d185fccf839df,-0.39648143927973983,-0.5364219522146504,0.38240178703963174,0.33320379602033157,-0.9633390079207012,-1.875886486215316,1.954273832989926,-0.6317061607701296,-0.04940763216874261,0.02134529097701935,0.3321046922600504,-0.14079671738387678,-0.5650066844919787,-0.8558093192327464,-1.072864200881583,-0.4595349186604592,-0.9839354497891714,-0.8725997320486019,-1.0890977082096884,-0.4072731100900536,-0.9348597195062445,-0.46040854845389667,-0.5599731703237033,-0.5051269459295814,undefined,1486821838838
903d185fccf839df,-0.4255877185422706,-0.5370089379847794,0.1775999353338977,0.17305941978574466,-0.991902388890605,-1.846955006641869,1.9337665983448487,-0.7633408194788321,-0.09551350443836651,-0.14836540976695203,0.36118946870805785,-0.24081502375784752,-0.13417028743315507,-0.8567351701051157,-1.1054958186719728,-0.4171021662776858,-0.9984267931907688,-0.8887740694476743,-1.1008453533474252,-0.46577180331736057,-0.9561035776991488,-0.4609339505131889,-0.5652912958764412,-0.5171273192449923,undefined,1486821840339
903d185fccf839df,-0.5683472607855418,-0.6039287646825869,0.5151080358373403,0.5069566284606629,-0.8614900342253633,-1.909583591126681,1.9353102935017696,-0.7970863724575623,-0.1488006865903428,-0.06952188126272917,0.417005240400271,-0.30309423247592376,0.7797251002673797,-0.8511801458132405,-1.074969475807644,0.06178185239728187,-0.8724278881027832,-0.8999707134485166,-1.09481410253689,-0.017600052170703144,-0.8532553787315116,-0.4629428220660708,-0.5740418760556392,-0.49653726673141846,undefined,1486821841844
903d185fccf839df,-0.49350243916566194,-0.5628376563581052,0.6312260035353353,0.6266514351234289,-0.8603688950906502,-1.8494542802623786,1.9299376055493016,-0.764100850388177,-0.15757270922105837,0.0638432747697145,0.47110986654617015,-0.3317519762794518,0.3445368204099822,-0.8613643208607661,-1.1002326608057549,0.1405856201880256,-0.8769609132122661,-0.9080958800924873,-1.1038959629324758,0.04667305741238338,-0.8466268173336996,-0.46361021570240707,-0.5913187621005221,-0.4892689434006813,undefined,1486821843341
903d185fccf839df,-0.4560800456084269,-0.5293777722371937,0.908761087755198,0.9251595711370715,-0.9234716478080158,-1.8354625398317546,1.9133014594105817,-0.8616806997897783,-0.09555213859212847,0.041552047460858624,0.530328312518396,-0.34871421104345607,0.3967594139928699,-0.8104434877131559,-1.1191800431123835,0.1244207291619368,-0.8128471061821583,-0.8984318083286937,-1.1140273450819043,0.10671159632861539,-0.8340982295011771,-0.46719830320192374,-0.5470018120842962,-0.48009913088860123,undefined,1486821844844
903d185fccf839df,-0.39093748960310604,-0.5910144347239165,1.1008024690934337,1.15400140101473,-1.0275937582762633,-1.8317404159629986,1.9620054708858718,-0.565476145381556,-0.026243513588512412,0.17139437483112893,0.5624092917466981,-0.2877445391644087,1.1844502005347595,-0.7558192640268427,-1.1033905547892622,0.08602923839967774,-0.8068988115328568,-0.8530815986548899,-1.1065617478153194,0.16039057817750563,-0.8030380977813159,-0.46323633952540305,-0.5421877325441479,-0.48674903533160196,undefined,1486821846337
903d185fccf839df,-0.1719470434309198,-0.47889443855676594,1.3183645370297166,1.3103462681078164,-0.9555630195452506,-1.8642472795293892,1.9851872046544987,-0.4211780491415202,-0.03391249196330622,0.06362226963990601,0.6446912127347363,-0.35933318021367877,0.048608790106951884,-0.7354509268825663,-1.0865484400464611,0.027431651520258657,-0.7822052919361158,-0.8197766476063355,-1.1002996023009073,0.25884823689367015,-0.7704363968404726,-0.45341221360755074,-0.5596323250831607,-0.4903217969979141,undefined,1486821847840
903d185fccf839df,-0.18580721091848706,-0.45365272056756545,1.4185323615080003,1.4154058220126708,-0.9032911091762691,-1.8673847644908237,1.9252591773310623,-0.8198161251883392,-0.05129440393862447,0.31142498118488215,0.6543858801521081,-0.2864429626090577,0.19657280525846704,-0.7428575849276138,-1.1012852798632011,-0.25545358106109556,-0.9500998796155029,-0.793963569243726,-1.1049944622217631,-0.10618730763850645,-0.8443230301533758,-0.4592185676438706,-0.5630822356304799,-0.5130259372026779,undefined,1486821849340
903d185fccf839df,-0.1178925593059152,-0.4871126339164692,1.4612792129488137,1.4181949518797605,-0.7289999757961843,-1.8884876712084369,1.8628354733295178,-1.2045098961458083,-0.11370234215952041,0.08463678398336542,0.5684106199156387,-0.2658421816693911,0.5273158979500892,-0.7086017501886753,-1.1012852872254348,0.023390361635022814,-0.937024611093272,-0.7450985757182363,-1.0987533065894457,-0.06705985844607021,-0.8093973484704509,-0.4563424650193147,-0.603068845464097,-0.5135781530846684,undefined,1486821850849
903d185fccf839df,-0.12343657799336848,-0.5017880380974962,1.4478808588382628,1.4122116661443582,-0.5797030888182549,-1.8455015609368324,1.9396757787741612,-0.6069930108659244,-0.08582660636810711,0.1367014913494876,0.541035825551258,-0.2750361794652809,0.07472008689839574,-0.6956400710894464,-1.077074732328121,0.1870594928677056,-0.9033902222414852,-0.7285949246942728,-1.0741875038705826,0.211405630943148,-0.7359228367761459,-0.47135275249768793,-0.6335542101886797,-0.47025133716796386,undefined,1486821852348
903d185fccf839df,-0.09848833862548494,-0.470089198970949,1.351541099229144,1.3528810136198026,-0.6022493321433843,-1.8298327680745492,1.920283594415453,-0.7230012977647784,-0.10130494025647922,0.32870870198207214,0.5427327474626465,-0.2418310852070624,-0.5301916221033868,-0.727118430915924,-1.0591799690789385,0.22747174163146872,-0.9256983492875587,-0.7161696896753831,-1.0702622928525425,0.21584038312398018,-0.7227980566372723,-0.48503574714884606,-0.6920254131439523,-0.4712018202224023,undefined,1486821853837
903d185fccf839df,-0.4158856599601701,-0.514115323830053,1.7758184159633694,1.868881252997979,-0.8092592669666197,-1.7699899542741697,1.9213276174865854,-0.7029864717091467,-0.1211075046232452,0.25098470537714607,0.6644654441504402,-0.2088187862805985,0.1835171568627451,-0.6660134000569328,-1.0507589098669794,0.25576021966604967,-0.9100302662876648,-0.679875590102503,-1.0455495562549981,0.12437361524792788,-0.7112621872736764,-0.48344040251473575,-0.7213974596150131,-0.48373222482218337,undefined,1486821855354
903d185fccf839df,-0.525380779530034,-0.37792778580990644,2.0055028163871484,2.1926513072642653,-0.9611070082664687,-1.7732765123513103,1.8561873207457245,-1.1690890902405866,-0.18501740020267293,0.11121870707771477,0.7069457988279074,-0.2560409100654413,0.3575924688057041,-0.5734300223222385,-1.0454957409574108,0.22343046587859364,-0.8663464772922693,-0.6457030264345459,-1.0537218314262446,0.11498056409111,-0.6956026604409651,-0.4734811648538584,-0.7220048655713317,-0.4916669376526919,undefined,1486821856841
903d185fccf839df,-0.48657244168540265,-0.330966542118207,2.1146027922268162,2.1331570484534454,-1.0451205860358153,-1.8355603690948274,1.9248489217056028,-0.7610320583385908,-0.14346601787696714,-0.1949119530724516,0.5389132122213883,-0.2495797188298314,-0.38657948975044565,-0.5604683043706858,-1.0349694141816244,0.11027651134318747,-0.8819308979302521,-0.615171904655786,-1.0483482807952977,-0.02322048555287415,-0.7071836760594,-0.48154801814003045,-0.6742068443751684,-0.5134741500982233,undefined,1486821858336
903d185fccf839df,-0.336882798445643,-0.4143227010794363,1.9806202676691036,2.0058915871452596,-1.0481651499425726,-1.9240504962136853,1.859143220886384,-1.2913244561259456,-0.1457160913198503,-0.2255804662259023,0.3862763074812805,-0.1367968493715026,-0.321301247771836,-0.5595424793998656,-1.027600992432696,-0.16250552478979868,-0.8868916159673035,-0.590669745523663,-1.023040815413928,-0.27501586449434046,-0.7378240589584946,-0.4801880336426524,-0.6562315931172509,-0.5063185995219196,undefined,1486821859837
903d185fccf839df,-0.26065196352754744,-0.6526510241406583,1.833877781017791,1.7537598027653274,-0.8815265722483501,-1.9856984702738094,1.9086914066061575,-0.9925379048080643,-0.15531845558928137,-0.2839467845449838,0.3589715724401353,-0.062132569049744193,-0.7826008244206774,-0.5400999866525712,-1.000232536189641,-0.19685589525515113,-0.9260756654771984,-0.575951983343291,-1.0093410606900068,-0.2249247222922335,-0.7204684588912236,-0.4660882651221992,-0.6407027015239071,-0.5153538097704352,undefined,1486821861345
903d185fccf839df,-0.17749109662378282,-0.6045157796807084,1.5767590427668066,1.605106084551427,-0.684226331148314,-1.9411005271117276,1.9285017365244774,-0.7646400859402651,-0.10223975679978119,-0.2965267152034141,0.3891544514566748,0.01378935789314124,-0.7390819964349377,-0.5465808132514112,-1.0002325435518746,-0.27363904636799846,-0.8706786213976363,-0.6403136890452222,-1.0244541729176768,-0.1644858239828706,-0.7492972371493225,-0.4655378273188393,-0.6138537901850188,-0.4984347817919513,undefined,1486821862838
903d185fccf839df,-0.004239296325174835,-0.6479549333836795,1.4370348021107708,1.4385873682237034,-0.6574218068386306,-1.9219774730724057,1.9363648598797576,-0.7071275027693594,-0.08025081525286239,-0.06858658948145886,0.39263344632802494,-0.020253701969305565,-0.7782489416221035,-0.651200038639127,-1.014969401774199,-0.3261748538755322,-0.8882597295957116,-0.6921615008587899,-1.0099777709630322,-0.1928035638931343,-0.7789370765185147,-0.46700326615577714,-0.5987530735179056,-0.4875097366362115,undefined,1486821864331
903d185fccf839df,-0.025029530303820855,-0.657934173737747,1.7075513861984075,1.7045436987921991,-0.7886570167708203,-1.8969940536724192,1.9949332672897493,-0.320133552274233,-0.013788044110411074,-0.1565258029872493,0.3906216113032507,0.005880926002003588,-0.8304715352049912,-0.6141666966107914,-0.9749693548726469,-0.3665869613156877,-0.9025158472749527,-0.6851509326397771,-1.018059087880384,-0.1724468215440577,-0.7757473157884043,-0.45565789744621316,-0.6048364811368674,-0.5059336471376809,undefined,1486821865844
903d185fccf839df,0.1343621370126296,-0.7125266270190207,2.063561419030722,2.04017405251616,-0.7537062217030078,-1.918621039293783,1.97060755330161,-0.47615449620730044,-0.01640133315438609,-0.08275500029885849,0.3267754793695221,0.02066372105992574,-0.8087121212121212,-0.6326833643872656,-0.980232505376631,-0.3221336205197394,-0.8905588618218491,-0.6741379426103392,-1.008004671091027,-0.11012931435763938,-0.7548606563043349,-0.4466493073255161,-0.6038321054821786,-0.5144224377595317,undefined,1486821867337
903d185fccf839df,0.11079987643755208,-0.6338665295867777,2.5554686441977053,2.623469649824089,-0.5325740248159472,-1.906138647189202,2.0031382535725637,-0.16786827880996186,0.06338606527448243,0.12878650695159702,0.4048576086984916,0.08723795157539789,-0.7477857620320856,-0.5363966220154175,-0.9654956397920729,-0.1321964442096821,-0.7793203917687513,-0.5875792681398393,-0.9835438196972771,0.03115142558720974,-0.681133372713514,-0.4443752284792951,-0.5737933541606594,-0.4997200053825221,undefined,1486821868845
903d185fccf839df,0.2050488497270427,-0.48065549816512626,2.7296457228131725,2.5783985235427025,-0.5292928872746271,-1.8798112562023828,1.923365718313476,-0.6513919932662553,0.08662567818105674,0.04193789057106439,0.4056850727681613,-0.022743971305171844,-0.6302849264705882,-0.5336191471029568,-0.8770745051825941,-0.08774304688429081,-0.7582373824461731,-0.5072838755088732,-0.9323761420069363,0.07006329686649346,-0.620602025114816,-0.43636396345191575,-0.5953399686886858,-0.488290519635421,undefined,1486821870350
903d185fccf839df,0.35751045055241437,-0.3573822462616617,2.394051527675838,2.4835797917372022,-0.4798289672018467,-1.8715075173455862,1.9522672856145116,-0.4217631682221918,0.03795053469565124,0.018281955658719116,0.3650313211074692,-0.03150269000027397,-0.7086188168449198,-0.5049182751397143,-0.8760218382706283,-0.08168128164476626,-0.7531259500103408,-0.4821420880244406,-0.8964265273433112,0.1213863142600472,-0.5833266484960653,-0.4425262560779043,-0.6056638556982407,-0.4862907826779976,undefined,1486821871848
903d185fccf839df,0.25910350637909596,-0.5381830118230108,2.352581206131978,2.3827861775485593,-0.6989040281701223,-1.8938402633813836,1.9416980908288137,-0.5976070769078525,-0.009838839691887117,-0.13103778071725367,0.37439443523409915,-0.09792069834087216,-0.44315396613190733,-0.5067699380321294,-0.8907587406663555,-0.10592851219119367,-0.7629915244717154,-0.4862205034758477,-0.9047317419028634,0.11442621589519002,-0.5910055307118867,-0.44347185266176403,-0.5765119557675338,-0.4903760802782352,undefined,1486821873327
903d185fccf839df,0.1121858552303581,-0.5381829825950184,2.3653414223625266,2.39270546879435,-0.6831771958879105,-1.9166225530696064,1.9556939195276426,-0.5465597308529202,-0.029857699858439286,0.08476988642798196,0.4135793857130226,-0.004492242261247554,-0.7738970588235294,-0.523434955866963,-0.9033903313248525,-0.09986669042222605,-0.7655131339341742,-0.5092850854673158,-0.8899824638530146,0.16391681976148972,-0.5836597179364859,-0.4482681636370182,-0.6055449444594944,-0.5017974825991995,undefined,1486821874833
903d185fccf839df,0.07753548826955456,-0.5734039263242902,2.4559387034624747,2.4246108216222964,-0.5945042005049567,-1.9266755487564893,1.9577083636461003,-0.5197270254199942,0.03725547417547986,0.006871707288851583,0.5021493264997949,-0.0879856215309992,-0.8391753008021391,-0.5780591989794379,-0.9265482524402527,-0.16250555305452022,-0.891033396879461,-0.565806607356179,-0.9280031337348014,0.10321614670831884,-0.635489944019847,-0.4493115077120905,-0.5279680859450797,-0.4873593607305365,undefined,1486821876329
903d185fccf839df,0.29375387333989955,-0.5898403901136775,2.691365074121526,2.509922772930785,-0.5964276286698846,-1.9109811344616885,2.0140230323684323,-0.11045979846782948,0.0032009438008206983,-0.20854659605895903,0.48678796912555855,-0.0469669559299744,-1.021954378342246,-0.503992424267345,-0.9212850798495673,-0.2029177735535618,-0.7760342809852261,-0.5234708779703373,-0.9230563883165323,0.12478936939783247,-0.6079598707268544,-0.4603479432323549,-0.5370238113779224,-0.4871506186251957,undefined,1486821877836
903d185fccf839df,-0.015327471721720323,-0.6385626787997412,2.527396168490498,2.5249320394171226,-0.6658560882767448,-1.8818120709821606,2.0422434742872526,0.09579428441989221,0.01941653565233021,-0.3287371220435494,0.46144960067148116,-0.04298799416083855,-0.9175091911764707,-0.45492326048753706,-0.8823376704110458,-0.07561943161107709,-0.6786134076192483,-0.5024391731305884,-0.8737708530639877,0.22911383846764447,-0.5620646097286341,-0.4738755243835275,-0.5800573200626019,-0.4384260251476118,undefined,1486821879337
903d185fccf839df,0.09971183906264552,-0.65499909874714,2.5120836548768897,2.4094724226608606,-0.7483885169442784,-1.8901507471501435,1.93860018889565,-0.6326871532415055,-0.05901490763396537,0.12925827781503774,0.4233889868587185,0.017853540883301395,-0.8130640040106952,-0.4836241195000049,-0.8897060958410911,-0.0412690894104462,-0.7494471373387562,-0.5347878501987664,-0.8678375575139703,0.16373203900847585,-0.5877301812783567,-0.49987516189133235,-0.5338264443057775,-0.44044785622424054,undefined,1486821880847
903d185fccf839df,-0.03750361548235289,-0.6485419337678048,2.0074167217532564,2.0149687694517113,-0.7493142323304315,-1.8956337760252537,1.8584331849501787,-1.1890702035841862,-0.03167291127161811,0.4246071718127478,0.4027020578642359,-0.024101434773724978,-0.7826008244206774,-0.547506651173006,-0.9002323894868255,-0.0796606084374268,-0.815101803228764,-0.5837541698873979,-0.883853257873718,0.049675751487711285,-0.6379874644899506,-0.484240941491205,-0.5856639781654877,-0.45139481111669966,undefined,1486821882349
903d185fccf839df,0.1593104453913326,-0.6420847395604772,1.7719906052311543,1.8561513155337512,-0.761307352920724,-1.9051813272462805,1.8685132326253122,-1.1617527184516205,-0.01912857826301068,0.8703525534881715,0.3735264037523091,0.053682983688793325,-0.7521376448306596,-0.5178800060420415,-0.9160219072588818,-0.08774313167845542,-0.7801320569757201,-0.5782635083558156,-0.8629118035498804,0.11721333356514407,-0.6200287888223283,-0.49790988363478283,-0.5912449709426927,-0.43173889137189414,undefined,1486821885298
903d185fccf839df,0.1565384187949011,-0.6379756345736275,1.8868328054430439,1.989711635829687,-0.7593633561504458,-1.907044718736542,1.8669458676659356,-1.1732382075177994,-0.01580400659803956,0.869295236826247,0.38004864616202494,0.053682983688793325,-0.7521376448306596,-0.5178800060420415,-0.9160219072588818,-0.0796606932315914,-0.7795973789188708,-0.5779595270593009,-0.8628068513867303,0.11427223033681781,-0.6203806466415948,-0.49819824812782654,-0.5907942268129424,-0.4300523261393355,undefined,1486821885380
903d185fccf839df,0.1579243630822974,-0.6409107387922267,1.606107540097069,1.6931336904056324,-0.6954171750956183,-1.8807382917811015,1.8849126969760654,-1.0028849632121775,0.04186787279922906,0.9899363409931073,0.40710350628020736,0.09952800577862911,-0.8043602384135473,-0.6206475361604059,-0.9391798210120483,-0.0938049251827015,-0.851646099581929,-0.6503894053205558,-0.8752821653817088,0.10300056923942234,-0.6663410024880317,-0.47877407912523184,-0.5159059247265021,-0.43867577321372114,undefined,1486821886841
903d185fccf839df,0.19534675663953244,-0.5305518022334366,1.5174236560893302,1.5956714189308903,-0.6762446400730215,-1.8621136942974463,1.9069241640132824,-0.8292850849484877,0.07796505166537743,0.9879696464445884,0.3881562242901783,0.08405074904986841,-0.7608414104278075,-0.6706425508125832,-0.9423377260389063,-0.1766498415350734,-0.9097317933475563,-0.7101597277200978,-0.9062080686797551,0.05626628830615361,-0.7180682850631279,-0.4580284664863747,-0.5277523819769653,-0.4637078135621154,undefined,1486821888333
903d185fccf839df,-0.08324219234511165,-0.5469881929528431,1.9385115541082922,2.075166689801533,-0.777013606482951,-1.8647014792918288,1.9522593862526636,-0.5493568097453135,0.07789708004335286,0.7511018683574808,0.4378769713228545,0.16079119268271724,-0.40398702094474154,-0.6354608716766627,-0.9402324731995465,-0.1847322799819374,-0.9335516141178867,-0.6845113048466706,-0.8927042226968043,0.04376275084609056,-0.7068707858464864,-0.4481649721815441,-0.545945190744342,-0.45317250493728,undefined,1486821889838
903d185fccf839df,-0.24263385966156212,-0.6303444688260418,1.9570139947110627,1.95443112856585,-0.843047783926559,-1.8739089616785594,1.9645379433382746,-0.5007313022696374,0.023817071969460344,0.43022350970087403,0.45271208494887155,-0.01593498493555286,-0.5606548016934046,-0.6474967063789095,-0.9412850885758758,-0.24332990925843878,-0.8942626580888776,-0.67446725763047,-0.8884641553055379,0.051092413907542676,-0.6999004356513573,-0.4639254948134343,-0.5109165168800046,-0.441241991170416,undefined,1486821891339
903d185fccf839df,-0.19689542082044229,-0.673196563688903,1.9385112999713427,1.931565131135707,-0.8757871549373109,-1.9109275614373384,1.9542659378181655,-0.6262666647282134,-0.02983797813011925,0.2088810743891585,0.5312317532986867,-0.0720946221324485,-0.2864861853832442,-0.7067500613947112,-0.9170745447219124,-0.23322688239839992,-0.9125931717820672,-0.6561143855190517,-0.8568595607346307,0.08292099765638404,-0.6751989048991962,-0.4489798936333598,-0.512142386434939,-0.43817332397611575,undefined,1486821892929
903d185fccf839df,-0.15808691044876227,-0.6655653540993288,2.050801202800173,2.079360353115363,-0.8639483162916809,-1.927826191894493,1.876063396798157,-1.146420368527001,-0.08355339445536437,0.4911570439116245,0.41755696655940244,-0.04092781238929737,-0.5301916221033868,-0.6187958473664418,-0.9149692697958512,-0.13421703262285695,-0.8873715462958135,-0.6402630265366963,-0.8506044122941291,0.0948239950978513,-0.660100612838849,-0.45975808075117386,-0.5198063730633609,-0.43642572291227905,undefined,1486821894431
903d185fccf839df,-0.0555218228645674,-0.572816925940165,2.097376119110151,2.1657689591804394,-0.7900558698556063,-1.91665748995676,1.8140999063077066,-1.5194945454788629,-0.035462089356201904,0.7840657280531995,0.4802348099782931,0.015688626551046494,-0.673803754456328,-0.5475066252714569,-0.8970745212711364,-0.09582551359587635,-0.8333281604733834,-0.5473270790952525,-0.8508213141041828,0.12679116700967885,-0.6063369475681115,-0.5135452241466674,-0.46578601233509553,-0.4700329385580528,undefined,1486821895824
903d185fccf839df,0.14683622219116163,-0.5375960114388855,2.6441520199315454,2.7346580468157797,-0.691035465616569,-1.852102625933982,1.8805761390180127,-0.9598177328521377,0.09346914699158226,1.071075308743664,0.5619535405894331,0.1212513806303659,-0.6041736296791445,-0.38733740302970593,-0.8960218911703396,-0.03924841620310674,-0.7349892373420023,-0.4795265844726607,-0.8757579484846204,0.1893088555485268,-0.5673435758287267,-0.5169604476224059,-0.48213485550435115,-0.4529029649110814,undefined,1486821897321
903d185fccf839df,0.4573034080239486,-0.4747853189559201,3.2560052776656883,3.296492657243283,-0.4183822119297323,-1.8057018516168248,2.0609150919731616,0.3593282088793298,0.059595560614082874,1.9521025499966331,0.6986937659340837,0.008190796655954801,-0.7260263480392157,-0.217909801572007,-0.8370744509188083,0.23151303151670458,-0.6065362937159813,-0.3196134217425398,-0.8569365267308768,0.2821768780157344,-0.4646299389678768,-0.5182886546188917,-0.42201004916109885,-0.4950388679742137,undefined,1486821898838
903d185fccf839df,0.23692725910223422,-0.5282037568549471,2.873198536612272,2.982643968577507,-0.4464004498863182,-1.8597378718391446,2.1132850442391655,0.6343240065756894,0.06473142489991977,1.7056217748888929,0.7227974920515488,0.036188481894822766,-0.673803754456328,-0.18272812891147378,-0.851811294416665,0.2537396453852356,-0.5820343625683858,-0.26855089691602185,-0.8768844337511825,0.28752013972989204,-0.4447593058104848,-0.5039637011577527,-0.4066255467908694,-0.45671611143513563,undefined,1486821900328
903d185fccf839df,0.09278173806615703,-0.586905271281082,2.4048980926772283,2.5675412429304245,-0.54633627955136,-1.872003644318188,1.9768191524871874,-0.31830607793555943,0.06999834242501063,0.7215605735311237,0.7348229412015448,-0.035387584441356985,-0.8130640040106952,-0.23457481940684063,-0.8444428689866197,0.11027642654902287,-0.7210159891502163,-0.31351479730233806,-0.8724694457699121,0.3161150525736262,-0.4642222516376105,-0.4619211166300165,-0.4880477943225454,-0.4832942230655646,undefined,1486821903485
903d185fccf839df,0.43512733327413544,-0.5698818217215657,2.408087511392492,2.4126752062695207,-0.27416645136274176,-1.876501404454623,2.039082442143776,0.20325440849591653,0.18964622054613323,1.1581036320786606,0.6309374091041847,-0.06925993828052214,-0.7564895276292335,-0.1762472634603102,-0.7633901598071863,0.08804981268049182,-0.6953160887807608,-0.269887149117138,-0.8351624503712153,0.4225645083670206,-0.4078436322314395,-0.47922757822033224,-0.5360657371930303,-0.47925311505326107,undefined,1486821904827
903d185fccf839df,0.40740699829900096,-0.5417050725837468,2.630115782077942,2.844664913940235,-0.18789002891719087,-1.8825667433308113,1.9094672056987054,-0.6277877727935928,0.018342478670509588,1.2981291534640043,0.605220029383705,-0.11836077760724056,-0.4213945521390374,-0.058666313645654486,-0.7349690587388668,0.10825589466529109,-0.6648785175535088,-0.2183813176407793,-0.8050551741904225,0.4767516370578398,-0.35911937539585304,-0.495294445210829,-0.5167727876229887,-0.5145977905654922,undefined,1486821906337
903d185fccf839df,0.06783339518204429,-0.4342812256295596,3.1730633638932217,3.132834327454959,-0.2515893513385993,-1.8601617905037016,1.8526607645143127,-0.950529177735974,0.15549877523221345,1.3570910254143767,0.6155452651683725,-0.12963498321065625,-0.39528325534759357,-0.18087644011750964,-0.7939165063526319,0.01732859639549826,-0.6726265073558821,-0.2849278914472037,-0.8171176763559111,0.4609682348371843,-0.4000123491221811,-0.5069208161985275,-0.5616024012088404,-0.5150088333806003,undefined,1486821907827
903d185fccf839df,-0.030573548991274128,-0.4970919327265213,3.4212502049197715,3.43805036845869,-0.4977980750647845,-1.8968566264311535,1.9337718747121244,-0.5864135282590147,-0.008471053987966562,0.9235165413595915,0.4589068597761343,-0.06875739183598174,-0.9523242535650625,-0.2845698340590179,-0.7570743497534702,0.0072255130060163274,-0.7368319508235845,-0.27919024386645336,-0.8301737248645529,0.45750358711575945,-0.3984215508103919,-0.5237022045975486,-0.6188726987710852,-0.5314602679228023,undefined,1486821909324
903d185fccf839df,-0.10957651402203042,-0.6321055138204059,3.344688399262579,3.3957713528162317,-0.4973866444865434,-1.906464738909275,1.9471102494024761,-0.507873853902078,0.012457963506959196,0.5400872937128205,0.4142021112857416,-0.03240145895642969,-0.9088054255793226,-0.2651273154101744,-0.797074374568321,-0.006918747209815308,-0.6839411107824722,-0.1897690781672257,-0.8680404650660962,0.33607144527628363,-0.39388389645627536,-0.48984071329173573,-0.5664594968340803,-0.5043587511866456,undefined,1486821910828
903d185fccf839df,-0.08462813663250794,-0.5939494804865311,3.0550312366921695,3.2294258117184507,-0.578623080824662,-1.9192010191536677,1.9664314343052751,-0.4160103409202626,-0.012690346342990006,0.8185159783196366,0.35802140959766837,-0.09282389487623043,-0.4823209113190731,-0.3530815423892184,-0.833916553254184,0.0011637477664917756,-0.7189631521414603,-0.23380203363490892,-0.8849867419881382,0.29859162922157007,-0.43073048354815896,-0.49402706926497686,-0.44859644489687217,-0.5004917087306303,undefined,1486821912325
903d185fccf839df,0.19257476454851066,-0.6186040957936332,3.4231638561489297,3.4709627549903908,-0.5930642057002955,-1.9384312175636802,2.0535516482982032,0.16143265624310194,-0.03906835464549805,0.985694916422027,0.34021493583341245,0.012735689835193811,-0.49537655971479505,-0.2790147935786746,-0.831811270965889,0.025411063107083808,-0.6741555893341592,-0.13008741503579735,-0.9023948068314879,0.3567361597652404,-0.3804865334579724,-0.45624930063590124,-0.4121146144012264,-0.45819952797513985,undefined,1486821913839
903d185fccf839df,0.2785075890378873,-0.5816221362979895,3.501001683429177,3.7083282094854386,-0.5336437350633633,-1.9352215260202312,1.9692663506544656,-0.37436794398634693,0.026996800342898582,1.1075892809871823,0.5063623102180138,-0.022203258749463783,-0.45620961452762926,-0.24846233642766444,-0.8202323251326564,0.1486680586348896,-0.610984912939724,-0.03758843907477727,-0.883601373024713,0.41310986462656335,-0.3185135780479812,-0.4556217189491066,-0.39127789718035577,-0.4648892691558873,undefined,1486821915337
903d185fccf839df,0.12050203853588182,-0.5000270077171283,3.56161232931886,3.5369104247584007,-0.37455485598259186,-1.8942408909457928,1.9636832663784052,-0.3395371918325426,0.028468270082658852,1.1194819687897635,0.5777733995528789,0.05662238009081138,-0.7303782308377896,-0.15124975613422156,-0.8107586321387837,0.10825592293001263,-0.6029386431523567,-0.05142592166874184,-0.8819991037315629,0.44487685891502105,-0.3162101797904632,-0.47845090926751027,-0.3573181718807461,-0.49608341222824565,undefined,1486821916829
903d185fccf839df,-0.0957163810398729,-0.42195393989700286,2.869370217606158,3.1687905217878645,-0.3878748333373279,-1.884970518979222,1.857307613093031,-1.0625001822722187,0.012532346274762043,1.1535875296593365,0.5312810140752855,0.03747803581567677,-0.865286597593583,-0.17902473837277094,-0.8433902609725243,0.17897711095028465,-0.6623812043053006,-0.08263466895250274,-0.8684952586906395,0.5013891506200236,-0.3157366910715461,-0.5012421923469371,-0.42348872742005644,-0.4953592371223471,undefined,1486821918325
903d185fccf839df,0.05951738440356924,-0.40845253648422625,2.7098675147242965,2.8054055759699352,-0.411573079838096,-1.8843765628939524,1.80073522860699,-1.429729261432013,0.00991737823331369,1.2804937975129704,0.44924474523986185,-0.03300793815160722,-0.9610280191622104,-0.11236470588576004,-0.8454955285363517,0.16483293552861764,-0.5463558345615122,-0.18292316708178488,-0.8722455499444787,0.46515660806758,-0.3658454936475259,-0.5147923583772485,-0.48650146299611996,-0.5008962965728098,undefined,1486821919819
903d185fccf839df,0.012392828748004459,-0.5440531764182208,2.3991558683050065,2.5897637872259844,-0.5323683039173654,-1.8855691338011527,1.8730338569229061,-1.0099075293906656,0.12376852802946349,0.9243225710685369,0.4778842515929207,0.07317154391617957,-0.9610280191622104,-0.29197652448100175,-0.8949692463450751,-0.06147525618941007,-0.6425434183615565,-0.35079050585818017,-0.9015481934678085,0.22902144669105748,-0.49829963621007295,-0.4915826697973165,-0.509731453743727,-0.511693052310326,undefined,1486821921327
903d185fccf839df,0.02348096963914021,-0.5528583867760454,1.9857241000243737,2.2841064860842284,-0.6199921580383527,-1.8933138535884928,1.8941091223072397,-0.9021918231728607,0.18774665020908468,0.8183359397067682,0.4972282307808397,0.026702525058741405,-0.691211285650624,-0.454923234585988,-0.9065481995405416,-0.15644375955027412,-0.6514736696309156,-0.4835796689134182,-0.918543447546037,0.09373070401723554,-0.5934979677733504,-0.4779258033222767,-0.5207852835264098,-0.485000306544657,undefined,1486821922829
903d185fccf839df,-0.09848833862548494,-0.5927754797182806,1.759868272743658,1.9823297905690107,-0.5534025553032791,-1.8818866062892077,1.9467630985849265,-0.5328150811450044,0.11658055378696931,0.3160485604518314,0.4326800742293453,-0.013624541034544135,-0.678155637254902,-0.6215733481804516,-0.9539167086833079,-0.28172140002069784,-0.8048156337109797,-0.6190350005979749,-0.9434590909494261,-0.01510550667394216,-0.6933697036943169,-0.45509386396917967,-0.5083387767595192,-0.49293659239360876,undefined,1486821924320
903d185fccf839df,-0.10126036522191643,-0.6555860991312652,1.6750127077420331,1.7078474151237226,-0.5846710750264127,-1.936642362922568,1.866335744358435,-1.1393292667591133,-0.008028607033806113,0.10025629308569937,0.28476357361389143,0.005276713197650799,-0.6085255124777184,-0.7391542720935582,-0.9749693401481794,-0.45549367117230566,-0.900553421233885,-0.6973291825618052,-0.9747908086421454,-0.21103532565744187,-0.7804393774146516,-0.43978677420021245,-0.5060511389289605,-0.5142549006623928,undefined,1486821925825
903d185fccf839df,-0.1996673784060543,-0.610385915047926,1.5888813752543027,1.6391839101969963,-0.6986468838196593,-1.9480533056266074,1.8873873498917697,-1.0617797657629664,-0.12761675937133124,0.33591627298614535,0.3046587246082471,-0.04349914634409981,-0.6955631684491979,-0.7400800905889912,-1.01917992953962,-0.38275183820941566,-0.9510111424976873,-0.7319703829102628,-0.9866364094624771,-0.2290053092046655,-0.8052838856247508,-0.43050839222776466,-0.5722784974624451,-0.510119401330199,undefined,1486821927344
903d185fccf839df,-0.08740023223975892,-0.5158764272804018,1.8153753404150206,1.7205259461633413,-0.680009196760906,-1.9386524967295475,1.953093056472358,-0.6015824399829632,-0.06079016705378483,0.48829970038367826,0.33123844461847474,0.014412410701068296,-0.7651932932263815,-0.7373025832995941,-1.0539168038504867,-0.4130609470542538,-0.9341368854309285,-0.7439333135445395,-0.9946267680525291,-0.21453077049861852,-0.8105132912027639,-0.4466292402421332,-0.5664653724170889,-0.5134871464670795,undefined,1486821928825
903d185fccf839df,-0.10680438390936971,-0.5147023826701629,1.6054691480801175,1.6112964235437788,-0.6481029657818979,-1.9422930973094885,2.0430324229208794,0.008255444396055916,0.030424272710867877,0.5157619162917101,0.3066761366733182,0.024900774457199577,-0.9479723707664884,-0.7595225962870601,-1.0770747396903546,-0.29990690772468304,-0.9306600324011652,-0.7713359613736712,-1.0137560482492,-0.22158325888996241,-0.8307457237963175,-0.45302679079562225,-0.5429957614066878,-0.5119743267713491,undefined,1486821930320
903d185fccf839df,0.1246600094197096,-0.5974715558612632,1.452984691193533,1.4581280594070436,-0.5781910861982572,-1.9616071491196096,1.9656950809552798,-0.49336254650006883,0.010529914829530192,0.49880992195796375,0.2674209980893551,-0.1552715099260252,-0.8217677696078431,-0.7752617697249117,-1.0465483784204415,-0.35648396272037036,-0.9722961387418179,-0.7830519079630529,-1.0182340074427219,-0.20914131538669445,-0.8326939222921432,-0.45571492604379266,-0.5739428583355348,-0.5080876373215779,undefined,1486821931831
903d185fccf839df,-0.19966741291146406,-0.6467808887734406,1.1384449799050782,1.0738260778551805,-0.7009405933950128,-1.9758364703245435,1.9620948779185052,-0.5736216099811517,0.0009400096874703975,0.2291630712741579,0.29242602215977215,-0.023883082236387902,-0.45185773172905525,-0.7826684601468955,-1.0402325757289592,-0.3403190010324777,-0.9777409725334661,-0.7875356324022363,-1.0095439685418688,-0.1848117715007878,-0.8320067176963118,-0.45089438391681275,-0.5259919666799405,-0.491754769022079,undefined,1486821933327
903d185fccf839df,-0.22461568678475732,-0.6714355040805428,1.2086264233100468,1.1942932915672013,-0.7202674144993495,-1.9844872644081875,1.928541188814041,-0.8088049822113563,-0.023683766833089797,0.005818536544403006,0.2860078830648024,0.0386526654856515,-0.4692652629233512,-0.8076659609975969,-1.0633905042065932,-0.41710215214532503,-0.9905993087185576,-0.8281614661646824,-1.0199832100946034,-0.23419458790482764,-0.868214550948851,-0.43615443175746593,-0.5181418070646928,-0.4991722002162154,undefined,1486821934819
903d185fccf839df,-0.40618356687265983,-0.656760129127508,1.0236032879670875,0.9623214483571347,-0.835724364082244,-1.9774972171896688,1.8991846649900341,-1.0441984303051672,-0.04461359558167348,0.03789652196563482,0.24139885913746884,0.0844901370771027,-0.10370710784313725,-0.8298859739850629,-1.0791799925297145,-0.3362778383384888,-0.9917295724257079,-0.8554817854214913,-1.027966571182551,-0.2912458291583691,-0.8937166881424463,-0.4244223967840133,-0.5297218465997682,-0.4795450248855127,undefined,1486821936325
903d185fccf839df,-0.3881653594904453,-0.5798611059176216,1.035725112180685,0.9779232565436247,-0.8105861255535379,-1.969235406810149,1.861857187488563,-1.281276388213715,-0.05475533539623555,0.04333287215885882,0.2853785154811556,0.07173134934645718,-0.7347301136363636,-0.82896015548963,-1.072864197200466,-0.2938450718233546,-0.9797417471332018,-0.8369389267438009,-1.0220892502663563,-0.3129422395595387,-0.8889812309925346,-0.42425450368065254,-0.5144010434236662,-0.47703718592757455,undefined,1486821937830
903d185fccf839df,-0.3119345245723497,-0.47537231934004526,0.7250137198983444,0.7148952825297876,-0.7536136455583928,-1.9476363709037292,1.9222401619072746,-0.8465726415629399,0.03160413159903767,0.290516117169681,0.31400909573835445,-0.06044976537291294,-0.5737104500891266,-0.7863717988825002,-1.0781273808345022,-0.291824469277819,-0.9936449416605946,-0.8311252843538318,-1.0447519206897966,-0.3188398442597025,-0.8945840010993182,-0.4272217566469384,-0.5252851838183054,-0.48859944196851657,undefined,1486821939326
903d185fccf839df,-0.09017225883619041,-0.479481424326895,1.0114809554795914,0.9984493858383403,-0.6135121620543333,-1.9526046385192009,1.921601109714152,-0.804653073625918,0.09029937124619491,0.19177091779431119,0.3654468987701448,-0.024178916069078696,-0.7564895276292335,-0.7900751311427175,-1.1223379370958908,-0.22918560664552484,-0.9420359647815957,-0.8136780237253372,-1.0580738488253214,-0.3257999399994092,-0.8893929494483613,-0.4287739447457835,-0.5159439398048585,-0.504646927584164,undefined,1486821940832
903d185fccf839df,-0.17610508332556707,-0.3773407561977889,0.7766927227005422,0.9295731999763718,-0.6837017560521674,-1.9315832544036153,1.9511075339068695,-0.5929369065413659,0.08040909234559998,0.05211521791892842,0.35859893092716216,-0.047912424555531505,-0.8783422459893049,-0.7363767583287738,-1.1012853056310192,-0.2453505259363352,-0.9388758703669978,-0.76568064378263,-1.0419671904196588,-0.34811228710105835,-0.8610231748070383,-0.42386583665894195,-0.5354069852161941,-0.519973676619182,undefined,1486821942330
903d185fccf839df,-0.26758209902944563,-0.3333144998127193,0.6535562548703212,0.6493135962920356,-0.7550536436159013,-1.8636183828303705,1.950071399722367,-0.5584136218205218,-0.00468333487734272,-0.23935295153395028,0.32954979320832745,-0.03128259401048426,-0.8696384803921569,-0.7280442623621316,-1.1033905658326129,-0.24332990925843878,-0.9197986138693761,-0.7715829469909793,-1.0460253409789309,-0.3701320628103286,-0.8678241374642596,-0.4210993681548318,-0.5403605246347593,-0.49985894325635344,undefined,1486821943839
903d185fccf839df,-0.33688283295105276,-0.5510973563956775,0.3645374843168632,0.3823234462616362,-0.9112110986826157,-1.8205926761829276,1.913756421171162,-0.8322857403095051,-0.031345576696969406,0.012909379557747817,0.3830318989006494,-0.1880675194486892,-0.517135973707665,-0.7530417696882202,-1.1107589839004244,-0.4130609470542538,-0.9648757507586627,-0.7838118607115766,-1.0684781067029303,-0.42568965360358574,-0.8911543562647716,-0.42822951840430734,-0.5308066713202528,-0.49939520702638784,undefined,1486821945331
903d185fccf839df,-0.3784632318975253,-0.6238872746187142,0.37921135177657034,0.353654193111441,-0.9434361877101913,-1.803952591100916,1.9209121095868513,-0.7934673955087385,-0.09911015399408003,-0.0204624013301865,0.36465653117405367,-0.24052557892645707,0.4359263591800357,-0.7669292802336567,-1.0739168346634966,0.2880900299829488,-0.6482266779577274,-0.7994985617187865,-1.0373702856063942,0.06727617817340413,-0.7828046569342072,-0.41482470505778896,-0.5722760864473183,-0.4186578499080262,undefined,1486821946873
903d185fccf839df,-0.37430519200287804,-0.5980585854733808,0.6803527089544739,0.7653615468545316,-0.926259072995777,-1.8066801308923357,1.9049123685536804,-0.8957676521937971,0.004117075333824241,0.3459024977393046,0.4676520025012507,-0.26646560480597187,0.0660163213012478,-0.810443468286994,-1.0633904968443595,0.25778080807922454,-0.661478768137862,-0.8079593753244289,-1.0514898493866418,0.13635360125487817,-0.7785012715298283,-0.42909851585244335,-0.5472505528487562,-0.41896827951720267,undefined,1486821948331
903d185fccf839df,-0.32440871326711096,-0.5593155663693768,0.9247112309749095,0.982248390692698,-0.9252202184131046,-1.8152167932251402,1.9196366460030478,-0.8042308243881451,-0.062394073240001235,0.23014011621637906,0.44493747905362313,-0.2714111858207397,-0.41704266934046347,-0.8428476660350664,-1.097074755778897,0.28606934264324857,-0.6555346349088231,-0.8547154980627537,-1.0721024543822595,0.21896626153192392,-0.791490304428372,-0.44052143337833716,-0.502441323703614,-0.3910875114636075,undefined,1486821949833
903d185fccf839df,-0.2703540566150577,-0.5164633545945462,1.0874041149828826,1.184665720095432,-0.8659540286885663,-1.819246377190728,1.948982654803287,-0.6110005282111075,-0.0045570858166749965,0.46697673830238534,0.5328546815975401,-0.2532431560576795,0.570834725935829,-0.8456251474229145,-1.10865371265548,0.2335335775327971,-0.6606688063425235,-0.8513083743144868,-1.0855433279846005,0.2512260048495927,-0.7889711010631014,-0.4524151698441327,-0.4907173680793658,-0.3973028011070886,undefined,1486821951328
903d185fccf839df,-0.1567008626451368,-0.56812082056919,1.461278704674915,1.5216813252491277,-0.7723233290175094,-1.845114908171681,1.9697318271769333,-0.48565082012700955,-0.05588884772657906,0.3268643643723413,0.553775812507902,-0.3324297922004792,0.3488887032085562,-0.7761876400234429,-1.0928642353757096,0.2779869607258276,-0.6833063422722362,-0.8338231160737577,-1.077266100503394,0.32831062224213525,-0.7591446111462403,-0.46449480535337795,-0.5241371698011893,-0.4102195067971241,undefined,1486821952836
903d185fccf839df,-0.2287737266794046,-0.5675338055710686,1.5652748481593126,1.5993305539993996,-0.603946467829605,-1.839918375427259,1.9534322895964287,-0.5534530109789737,-0.0031349574488253487,0.4008584650549583,0.5394934182602503,-0.2803635398226575,0.10083138368983958,-0.8289601360634682,-1.1349695351166216,-0.2433298527289957,-0.9444085427861053,-0.8708455048284011,-1.10790513527731,-0.20521471389801169,-0.9001008408942676,-0.48069791684084034,-0.5215534307360726,-0.5023866831858823,undefined,1486821954323
903d185fccf839df,-0.22322956997031237,-0.5951235397107661,1.2213866395405957,1.3263228975708918,-0.6804617704133754,-1.8370324489115797,1.9413983005666107,-0.6285537205209514,-0.060189520757962967,0.19955090198905812,0.4724114365330242,-0.25339052348357766,0.17046150846702318,-0.7771134585188758,-1.1107589912626583,0.2315129325901792,-0.7664491326358639,-0.8443484689251265,-1.1012651618593334,0.14349848286327627,-0.8080815983441868,-0.47635616055054397,-0.49678156536621537,-0.5075799803027414,undefined,1486821955824
903d185fccf839df,-0.37430529551910724,-0.3620783662466328,0.7894529389310911,0.8055020361424796,-0.8209849624126881,-1.8516903504501707,1.912102257508419,-0.8454481546616552,-0.056422402545020296,0.228794619223105,0.49413422445926375,-0.12470462890703356,-0.12111463903743315,-0.7771134585188758,-1.0981273932419275,0.23555418007833273,-0.8096740185335619,-0.8216132015496125,-1.0889577713926828,0.23870707125960047,-0.7727075944680926,-0.47084598602574357,-0.5202981756885952,-0.5095586732467249,undefined,1486821957330
903d185fccf839df,-0.30361847928846497,-0.44484752482373696,1.0433814960559638,1.0349800302243688,-0.8262306699068291,-1.8873253795267613,1.9586840076370902,-0.5721773721203961,-0.10175084253598124,0.1132071818023341,0.48472150119510876,-0.15899625183315694,-0.852230949197861,-0.791000962588925,-1.0833905313384862,0.28606939917269164,-0.8486338566907891,-0.8576223200190298,-1.0837941249045244,0.22301605520174922,-0.7857356891338424,-0.46752707944686234,-0.5328849522934325,-0.5301845163516108,undefined,1486821958828
903d185fccf839df,-0.4325178195387591,-0.5176374576607699,1.079747731107604,1.102833976043881,-0.618408162654939,-1.8797786437790958,1.9582553481012335,-0.5329635103517175,-0.0469367759501843,0.19662219262109104,0.47935137632825486,-0.12260887161746489,-0.5911179812834225,-0.8132209626256166,-1.080232633673862,0.33860517841550386,-0.8625222097705553,-0.8697309093046566,-1.0797849525719245,0.2678717264636863,-0.7824305844279315,-0.46000132875782973,-0.5281025088189978,-0.5268793599106185,undefined,1486821960324
903d185fccf839df,-0.18857920300950884,-0.5886663455034385,1.409600210146616,1.5104631590761413,-0.44797415882649916,-1.8752110062735887,1.9427657952251411,-0.6005162246466854,-0.0275441110498424,0.39155018167009475,0.4296468533985858,-0.18954704925433746,-0.2560230057932264,-0.7697067939984411,-1.0560220714143143,0.2133274814156371,-0.8479673037648519,-0.8231394427974271,-1.047641604058995,0.3545957724960915,-0.7352748470403495,-0.4571449224949308,-0.5630369492469762,-0.5444618677803192,undefined,1486821961824
903d185fccf839df,-0.004239365335994304,-0.5422920875818681,1.4887135507760192,1.5956553793333808,-0.46802098320069474,-1.9076526503110287,1.9482252797859314,-0.5762098499215459,0.022496688045177935,0.8090835137172371,0.3461831179541299,-0.29441314529019846,0.6274092023172906,-0.7974817762369905,-1.0507588988236287,-0.24332993752316032,-0.9814466584322692,-0.8474389476488234,-1.022264171223384,-0.03376842157209277,-0.8255535549893265,-0.4531265376330423,-0.5846564324422467,-0.5172153713942648,undefined,1486821963335
903d185fccf839df,0.08307961047323703,-0.5798610913036254,1.39492583441301,1.3700955945051279,-0.5203957537929079,-1.9644907462932344,1.8968888376623356,-0.9475035073126645,-0.013506727159154904,0.622745943883021,0.2531342724316072,-0.20987458281278137,0.38805564839572193,-0.7900751311427175,-1.0170746693380264,-0.2352474708115748,-0.9600601245026038,-0.8233547620021286,-0.9922268624601303,-0.04109807993519876,-0.8106236689288343,-0.42862750528244303,-0.5872825688166471,-0.5033920742542869,undefined,1486821964823
903d185fccf839df,0.06644738188382854,-0.5687078209533152,1.4376726858538236,1.4605314206508722,-0.47723696977969204,-1.9550480112238962,1.9627917747888497,-0.49188035146507586,-0.05025421105744105,0.37463549635306437,0.23557615619719302,-0.02163749503452358,-0.5345435049019608,-0.763225941498052,-0.9770746297987082,-0.2352474708115748,-0.9607797298662575,-0.7787581724542977,-0.9570748845300651,-0.014196998190676593,-0.7791236801139667,-0.4200166251279761,-0.5904778430387492,-0.5069164327689957,undefined,1486821966329
903d185fccf839df,-0.02087152491458333,-0.6221262223173519,1.6839451132403669,1.5795883621139073,-0.3525228907256193,-1.9717999003356208,1.9619081566349776,-0.46691422830784235,-0.07083261917697393,0.37645593391257104,0.2827383906245467,-0.029028273262295175,-0.4692652629233512,-0.7548934325806352,-0.9328640624939688,-0.2877832217896655,-0.9681635094269264,-0.7686507940129802,-0.9203976015597336,0.041222005637739964,-0.7563061143053457,-0.3864885609545272,-0.5694699524262581,-0.4825327409836383,undefined,1486821967824
903d185fccf839df,-0.07076793463953095,-0.6403237237941053,1.4804190290207384,1.4935292336785022,-0.37351600049968536,-1.9577708933342066,1.994938525849155,-0.2644764242461533,-0.118864013557976,0.3419592071503795,0.2844234094431115,0.015110562488628139,-0.45185773172905525,-0.774335957704866,-0.9233903400511609,-0.28172140002069784,-0.9417223596425134,-0.7767189647618141,-0.9371409700365588,0.058006310177981316,-0.7593278314843879,-0.3775906018575241,-0.5759286121781572,-0.48008923612859034,undefined,1486821969426
903d185fccf839df,-0.07769807014142918,-0.6209522142421033,1.4472427209582606,1.4120218529398674,-0.2836704430682772,-1.9652407635915,2.0189933611766033,-0.08229706157931069,-0.06578097802161453,0.434152531177891,0.33622652752106014,-0.051301908855644195,-0.49102467691622104,-0.754893426105248,-0.9276008530921144,-0.2554535245316525,-0.9104500983449033,-0.7514315203534715,-0.9400866276970247,0.12480476846254497,-0.7379711752478069,-0.3659908778019726,-0.55616045936404,-0.4892789448959172,undefined,1486821970820
903d185fccf839df,-0.007011391932425808,-0.6356275891951381,1.5352884670859974,1.5239665994828075,-0.2847092966506888,-1.9614068352998038,2.024594850934344,-0.026870927157259524,-0.04868912362059764,0.16305646311415992,0.32250603545489676,-0.13350692778154644,-0.7303782308377896,-0.7660034423120619,-0.9518114043083115,-0.17867042994824825,-0.8862545079845859,-0.7549716364504835,-0.9536604405347447,0.09216006174705105,-0.7491735785614829,-0.3758043112294881,-0.5556604808987631,-0.4790701487004484,undefined,1486821972337
903d185fccf839df,0.3769146367274349,-0.5898403754996814,1.8172889916441788,1.8373366649515104,-0.19984201161660534,-1.9291818097562419,1.997402655884678,-0.15955479087171723,-0.011722812673838772,0.44484418830615674,0.340713278566818,0.0419251982803598,-0.5780623328877006,-0.7456350922170109,-0.9181271527360079,-0.06349573154369878,-0.8818844061068031,-0.7612032528075705,-0.9532336342026447,0.08561572118038446,-0.7509029550588162,-0.3772158706032267,-0.5447567836590831,-0.4759839289619608,undefined,1486821973827
903d185fccf839df,0.3588965328614496,-0.6626303229507104,1.9276649891069015,1.9186465934838932,-0.2600750508571955,-1.9010795382072563,1.9791255029569466,-0.25654095754925077,-0.01389913256589227,0.3536053212055164,0.32771126067342915,0.029314985345052034,-0.5301916221033868,-0.7345251083871334,-0.9676009220803679,-0.10188727883540091,-0.8761435744863599,-0.7485943623666698,-0.9746368793717453,0.02037251030153349,-0.7609934436445255,-0.3860670605222977,-0.5492645520120578,-0.4971231309594047,undefined,1486821975331
903d185fccf839df,0.3575105885740533,-0.6767186536776314,1.9582897621971682,1.9942914924568247,-0.33228064264287394,-1.897734750589387,1.971772566187462,-0.33471580797894146,0.04268396800707741,0.3341998941713133,0.41134864815434147,0.04674430089878715,-0.6128773952762924,-0.7067500743454858,-0.9518114337572466,-0.10188730710012245,-0.9055405962365239,-0.7370620704795325,-0.9604613399850617,-0.02905649869253401,-0.7645879206928572,-0.38750866511991755,-0.5367153424025027,-0.47392946648474876,undefined,1486821976829
903d185fccf839df,0.15099433109662835,-0.6890459978661728,2.053353754320182,2.0924503905371066,-0.5102849157786598,-1.92181209637125,1.9589233396551962,-0.49506488229856904,-0.04290982103453036,0.010384889040003526,0.36779207674338527,0.05947833494727996,-0.9088054255793226,-0.7391542850443328,-0.9023376644128867,-0.1604849929060669,-0.9340085189962514,-0.7602533102427519,-0.9245187216551825,-0.12395711944538947,-0.7754567508557937,-0.4063387060635356,-0.5731188756643105,-0.4604977710934079,undefined,1486821978318
903d185fccf839df,-0.018099429307332358,-0.6180171100235041,2.2651730896103444,2.2853843966151843,-0.6251452946752558,-1.9346764843236757,1.9073396823882347,-0.8642873127122932,-0.15082486024904132,-0.10600503093129275,0.2916334163304186,0.05477560131756507,-0.8174158868092692,-0.6567550402671467,-0.8739165780690347,-0.1766498415350734,-0.8763505278886377,-0.7155933902061806,-0.892179461232645,-0.14748594279493357,-0.7464591468738164,-0.40754090345261307,-0.559325776953472,-0.48538988124875415,undefined,1486821979823
903d185fccf839df,0.3505803840613356,-0.6144950054207796,2.703487406609022,2.7805551973767777,-0.5669796792570638,-1.9155557598162267,1.9055224887186164,-0.8444485584717049,-0.14991175460966108,0.226700139346522,0.2959717793871081,-0.05355910629644035,-0.7260263480392157,-0.5900950077801358,-0.8823376556865782,-0.15240249792975982,-0.8335147812106635,-0.6724977086033349,-0.8676766306313585,-0.10720360777081028,-0.7098639625362586,-0.41636483743444763,-0.5752063536130275,-0.483786699030171,undefined,1486821981327
903d185fccf839df,0.32008805699517934,-0.6180170954095079,2.632667571187102,2.7742423128056624,-0.47065412381910954,-1.9034716676346615,1.917172527490264,-0.7363987102651522,-0.08506860547056151,0.39368010520735297,0.41456643117201925,0.0675682215029705,-0.8000083556149733,-0.5428775263189047,-0.8770744830958928,-0.2271649758352677,-0.8311282788677784,-0.6420362486679697,-0.8566216682656156,-0.13924777297339155,-0.7007476770556466,-0.39330767967849123,-0.5674775559488628,-0.47187095944437385,undefined,1486821982834
903d185fccf839df,0.10664183654290482,-0.6567601583555004,2.4310561547444296,2.3817774241408807,-0.4835729584672093,-1.9167296977284218,1.9318152967450848,-0.6684451651464293,-0.055885401502636246,0.2832578826715663,0.3972508032742318,-0.020383534206952214,-0.9044535427807487,-0.5188057856851509,-0.897074499184435,-0.2857626333764906,-0.8840740361641893,-0.6204852414279282,-0.8510312169318031,-0.1375231485911862,-0.6810597351165064,-0.41672348498938244,-0.5964294367927759,-0.5184425621033211,undefined,1486821984322
903d185fccf839df,-0.034731657896740854,-0.5675337617290801,2.0437834650787954,2.1104724314178114,-0.4269810564623629,-1.9384778039698718,1.8992320019761404,-0.8914049010628274,-0.08988765566857808,0.22577221741465373,0.35382965895053964,-0.01639654867818136,-0.7303782308377896,-0.5317674583089925,-0.9044429319767141,-0.26959775648276263,-0.8831445215752037,-0.6101562110375518,-0.8767165102228547,-0.1605746194049307,-0.6889554609048126,-0.412936187517206,-0.5858589355408484,-0.5063520699046223,undefined,1486821985828
903d185fccf839df,-0.033345575587705636,-0.6139080342646467,1.6316279725581668,1.8247051862208339,-0.2763264527141155,-1.957980524147126,1.9242993158271802,-0.6929744136822918,-0.07260714588493286,0.3490517905695653,0.32628623202366086,0.00585649008734039,-0.8043602384135473,-0.5937983400403531,-0.8981271440096994,-0.24130926431582086,-0.8429816696936702,-0.6388444467266372,-0.8998899487517347,-0.16667240455554969,-0.7161241739473151,-0.40728606480800383,-0.5447488912746542,-0.4861280603737388,undefined,1486821987330
903d185fccf839df,0.09832582576442978,-0.6379756638016197,1.8447240918822325,1.9823030695489705,-0.30419040346066767,-1.9412985132140312,1.9552652825135037,-0.45296831433725976,0.003368256042913567,0.5588911990093569,0.35321718910222827,-0.037540679812320225,-0.5911179812834225,-0.6150925086308371,-0.9002324189357607,-0.27768025145906966,-0.8557549727878762,-0.6731626691566776,-0.9065509130121844,-0.1652711457910783,-0.7348304350990265,-0.3983649712068453,-0.5420562412447159,-0.4697912822736456,undefined,1486821988830
