UUID,iqrAccX,iqrAccY,iqrAccZ,iqrAccXYZ,meanAccX,meanAccY,meanAccZ,meanAccXYZ, covarianceAccXY, covarianceAccXZ, covarianceAccYZ,pressureDerivative, pressureIQR, iqrGyroX, iqrGyroY, iqrGyroZ, iqrGyroMagnitude, meanGyroX, meanGyroY, meanGyroZ, meanGyroMagnitude, covarianceGyroXY, covarianceGyroXZ, covarianceGyroYZ, class, timestamp 
903d185fccf839df,5.477448689588396,0.8832751652295726,2.666801499042126,0.39964943727208246,3.6138527879035562,-1.3057370672580697,0.8239674507858655,-1.4298664620715955,6.049160183765781,-4.614447411063988,-0.20069946876378858,-0.2635620309999672,-0.9610280191622104,-0.6956400710894464,3.4324045610286498,10.195130596935115,4.762286116076027,-0.3458170434545493,1.7772135138237617,8.731288505609157,2.1212272581697147,0.8866478666102732,0.394856482106565,17.457462487737185,undefined,1493659600147
903d185fccf839df,5.323601066838457,1.9994854994170463,2.635858133518638,1.251967270055546,2.859731206703612,-0.5502978193847943,0.15753514520708803,-0.6921636229208944,-0.29413896364232806,-3.2691819295878877,-1.7488577383287962,0.006659664196825043,-1.017602495543672,-0.5984275166975526,2.1418764794061302,5.1678580096350455,2.906451488776673,-0.25669638071681355,1.0479263097312064,6.79805897441508,1.4872946286085584,-0.016417361507840303,-0.7693200342651619,12.918990431151808,undefined,1493659600974
903d185fccf839df,4.0637135985439485,1.61851194725248,0.5565786750523869,0.4692747033970456,1.4263701073694806,0.01181039142359694,-0.16556282928232655,0.5227775507286616,-4.055193893679887,-0.023785141437263436,-2.333474970730106,0.03795945088942093,-0.8826941287878788,-0.4354806900355954,1.1808227457547849,5.557835078203262,1.7124820177870659,-0.47124991559145446,0.5419713960519655,4.256144918133794,0.7391160012229921,0.3571424575656238,0.48648087491316827,11.685783781875497,undefined,1493659601606
903d185fccf839df,1.2043654383974824,0.46414595969503225,0.30073608549293196,-0.06611293709318061,1.0637305417940315,0.1332481134152727,-0.1344188769270504,-0.19975624295860206,-2.817116121936996,-0.15338342358429088,-1.308060465350717,-0.03902257504876757,-0.865286597593583,-0.6067600191395821,-0.3623370238796995,1.0397560847909026,-0.3515364642500082,-0.5333159799546658,-0.19931076150166968,1.9930159434579606,-0.004662567693044956,0.014697519111169002,0.09330151961325933,7.5297008621946535,undefined,1493659602320
903d185fccf839df,2.322879239725296,0.3493844691063163,0.23214989148661294,0.2277846429610599,1.4650320242589405,0.50270525797492,-0.47470507269602935,1.366766023547724,-1.2540971566831187,-0.8046512671143736,-0.9031492295000031,0.09444690013515046,-0.8043602384135473,-0.2938282003241913,0.10082147941287803,1.001364509234479,-0.07979539722367195,-0.04666648527009406,-0.024500692755109587,1.887091965659213,0.23036676582174437,-0.54268919401145,1.1907892879068485,3.0627001713566764,undefined,1493659603060
903d185fccf839df,1.9555852671277953,0.5354683404227655,0.2662835334375686,0.786710750889492,1.745755856109851,0.4620859556910277,-0.4130239346469359,1.320284247372214,-0.0014328407912686499,2.1517666497944097,-0.13420662423100277,0.14823730583574862,-0.7477857620320856,0.05243370596396489,0.29871649789244764,1.118559880846368,0.25452657144964536,0.13238715279888688,0.16508286589715654,1.920818992554024,0.3891456219401592,-0.7727280206351438,1.0098782902234014,2.084466901310361,undefined,1493659603821
903d185fccf839df,2.3492134923913954,0.7168564424901517,0.19865429211430338,0.9594547084476432,1.8986686486702495,0.5381102781550319,-0.4579867122008318,1.7080207341871172,0.3765021601364056,2.0195626035750895,-0.031695587045541276,0.10778125440613012,-0.27778241978609625,0.146868811344947,0.31450592731769855,2.2925328852012417,0.16406144769666106,0.24678715679910726,0.20696207630962937,2.385966693169369,0.5330159080557871,-1.0305679672932206,1.9456778123742655,1.4168936614171002,undefined,1493659604670
903d185fccf839df,2.7275953298367543,0.8184099202531823,0.14187123458700474,1.1507295066035168,2.074963311543808,0.6519809317809852,-0.5227299451348761,2.2869242254243187,0.13042857481487038,1.9597422392752757,0.17809701157165636,0.040357382431712926,-0.30824559937611407,0.2311196866376118,0.3713480558319997,2.433975487359558,0.3118762434353672,0.31994422466921746,0.19767878720978285,2.609852092204709,0.6020598033866996,-1.159246091607976,2.3564231663128528,1.129224364298154,undefined,1493659605418
903d185fccf839df,3.2348767490702754,1.0925462751117783,0.14123322377547728,1.5171155214247742,2.460676945789156,0.6653344667727117,-0.4922057859296545,2.516926742606753,2.2662487480070173,3.614660197139021,0.8684980513513789,0.054346439864641154,-0.35611631016042783,0.3662914015532741,0.3755586351330573,2.3875015581504346,0.1761018980489357,0.34415068368369284,0.2537162460699006,2.643394646341991,0.6358100535140753,-1.034212253223476,1.913270306301592,0.9475000307278321,undefined,1493659606059
903d185fccf839df,3.925111923668276,1.27099883454068,-0.06612041703941708,1.9437409360287239,3.2713133247031694,0.772018285074106,-0.46651521087143893,4.144837769380565,2.093337393634025,5.485840474557213,0.6229046391816205,0.13629452498228664,-0.32565313057041,0.4718364842887465,0.46924285398641596,2.6764483581182628,0.7641450469451263,0.43104939242104806,0.40905244207734565,2.8637724591531644,0.7709293111568123,-1.1396242038297222,2.8731580809206987,1.0019525833643235,undefined,1493659606840
903d185fccf839df,3.822546801578671,1.2234505027808784,-0.11907540969755107,2.003039116743524,3.592669359086515,0.7027746630697967,-0.5500194381988486,3.6031555643230213,2.2156527685010228,3.929744359305865,0.6040422902383394,0.08511648423653363,-0.3778757241532977,0.47739146001521715,0.3976638893364918,3.1735180258208233,0.8885089100886056,0.617915561460023,0.5673412949747251,3.5708844662725014,1.0288601550603775,-1.6913054383846577,2.651653490265755,0.36133640650217674,undefined,1493659607562
903d185fccf839df,3.2722993841653785,1.279804410248409,-0.0431520437079884,1.877971540094806,3.847168358534724,0.57344132190904,-0.5505006909805799,2.9033112857347425,2.89691729450137,3.88397478705106,0.48011484465890325,-0.13289873720218234,-0.49102467691622104,0.29037300280108974,0.6071378168381251,2.7835408441937206,0.6353375624671352,0.5586772030572121,0.543356224426691,3.6823230105015785,1.0037728528843468,-1.4252922482656476,2.2501471619913116,0.44524784797104344,undefined,1493659608324
903d185fccf839df,3.4400072692927623,1.243996378451035,-0.10631516169988349,1.7249981016599643,4.066531407281019,0.4757087779173374,-0.5730433891711704,2.408622232005236,2.5366842830377845,3.481193665810427,0.2683874841047227,-0.16543482000213106,-0.40398702094474154,0.30148300605712913,0.7124011803050286,3.0037869032308437,0.8157842936264738,0.511781756100578,0.5525010562486251,4.060000679135563,1.0629032951542094,-1.477552092131662,2.2084488265316344,0.6633793631897699,undefined,1493659609063
903d185fccf839df,3.3790224081279914,1.1283543069091524,-0.1937227381804995,1.7702615024812494,3.8985556848307175,0.41513690845129597,-0.594100245284741,1.735843914706788,2.8226847373010986,3.7593601682749362,0.36001154376328265,-0.18081856544813577,-0.22555982620320855,0.2727821988477595,0.8239801624075698,2.518841161713434,0.6089293245466957,0.43672370999474797,0.6309003231800446,4.047281567531795,1.0550386116294688,-1.4017725891472257,1.8524128077418702,0.8169314103074311,undefined,1493659609863
903d185fccf839df,3.32080984960293,1.0027330973111754,-0.18223852768944615,1.496601322576687,3.812659808431145,0.4470824236433239,-0.6556350776142067,1.6568732712604646,2.5004066446725366,2.3788785329076703,0.5052342382581932,-0.17864606386587445,-0.042780748663101595,0.2801887727127724,0.8134538761240692,2.367295447900914,0.4471984004218193,0.36977816476734054,0.6730001346470883,3.965084666722266,1.019694361166667,-1.1952022316748685,1.71994156508274,0.9977633921447192,undefined,1493659610617
903d185fccf839df,3.3970405810047963,1.1577050568152216,-0.17011633815398403,1.7522566641556263,3.8886196800419692,0.42374111323391,-0.5927301167104054,1.7773358648460997,4.224755908961128,4.593420664718066,0.7836675521394377,-0.0820010320527269,0.08342385249554368,0.2792630254465995,0.7713485248475207,2.450140477312172,0.39612633215864285,0.39915668957321193,0.6489450981801955,4.042508049510758,1.0348356078391305,-1.3247629894952373,1.7864962356633358,0.9354842720882172,undefined,1493659611812
903d185fccf839df,3.3388280224797344,1.1612269129800112,-0.09483093532527079,1.7525316331604837,3.933187602939037,0.4384479301981929,-0.5843778533153329,1.917105368063668,4.299893280665821,4.6120372914306245,0.809368500978449,-0.07709015741192231,0.10953514928698754,0.28852137876099837,0.7555590365243995,2.450140477312172,0.4208129508534409,0.4106319840703128,0.6517158352628913,4.03884321855218,1.0387671106342817,-1.3375843265519034,1.8267929382426213,0.9530865560835023,undefined,1493659612817
903d185fccf839df,3.3388280224797344,1.2428221146308536,-0.09546897790391691,1.836515057118035,3.9433910126727465,0.4566625817244731,-0.5766672619490225,2.05912137869796,4.284828235910824,4.592836607912406,0.8307371929483058,-0.12418710308106624,0.11388703208556152,0.296853907104577,0.7555590365243995,2.498635051463913,0.45937219509157123,0.42182229565346113,0.6559768932152462,4.060431839956387,1.0484269185761206,-1.3319257741623407,1.8776579257871437,0.9570459620060323,undefined,1493659613850
903d185fccf839df,3.3388280224797344,1.2428221146308536,-0.09546897790391691,1.836515057118035,3.9433910126727465,0.4566625817244731,-0.5766672619490225,2.05912137869796,4.284828235910824,4.592836607912406,0.8307371929483058,-0.12418710308106624,0.11388703208556152,0.296853907104577,0.7555590365243995,2.498635051463913,0.45937219509157123,0.42182229565346113,0.6559768932152462,4.060431839956387,1.0484269185761206,-1.3319257741623407,1.8776579257871437,0.9570459620060323,undefined,1493659614006
903d185fccf839df,3.3388280224797344,1.3355707181579715,-0.10759118332293838,1.8814015397270347,3.9336813138682243,0.48364914796490366,-0.5746370517109846,2.2537356347139426,4.135612464858996,4.594507156264043,0.8049321554017979,-0.12150493579198245,-0.02102133467023172,0.30148303195867826,0.7555590365243995,2.5693562112194637,0.4795596800601257,0.4281869041433634,0.6559349123622201,4.099081939399721,1.057999358431833,-1.3361221818194684,1.9310013876500312,0.9388456325743864,undefined,1493659614818
903d185fccf839df,3.3388280224797344,1.3514202400192181,-0.10631516169988349,1.9163763029672336,3.9212356202636283,0.5134214853119868,-0.5706870829803815,2.470205359515129,3.9439609984264434,4.581377967248072,0.8130203713491567,-0.2137269101786792,-0.2516711229946524,0.30148303195867826,0.7766117268871413,2.6178506723123185,0.5295771998863438,0.4333419203299805,0.6609516260605339,4.139995609664006,1.0678261780213243,-1.315794180982047,2.013166017570125,0.9821045221473439,undefined,1493659615838
903d185fccf839df,3.3388280224797344,1.4042513560262044,-0.09036489141169736,1.938830433783353,3.9029887950737385,0.5311889233433439,-0.565958691507958,2.594033335143483,3.826224500493319,4.571204773359366,0.8202013768553029,-0.22508282747202094,-0.39528325534759357,0.30148303195867826,0.7766117268871413,2.6218920752564405,0.586877048543862,0.4377433156708579,0.6653456231198094,4.173887586973911,1.0760363328842963,-1.3025797694593424,2.1038869477197637,0.9688946106446776,undefined,1493659616851
903d185fccf839df,3.3388280224797344,1.4042513560262044,-0.09036489141169736,1.938830433783353,3.9029887950737385,0.5311889233433439,-0.565958691507958,2.594033335143483,3.826224500493319,4.571204773359366,0.8202013768553029,-0.22508282747202094,-0.39528325534759357,0.30148303195867826,0.7766117268871413,2.6218920752564405,0.586877048543862,0.4377433156708579,0.6653456231198094,4.173887586973911,1.0760363328842963,-1.3025797694593424,2.1038869477197637,0.9688946106446776,undefined,1493659617070
903d185fccf839df,3.3388280224797344,1.4042513560262044,-0.09036489141169736,1.938830433783353,3.9094687820033998,0.5362224095010751,-0.5653380573667766,2.6306216248369827,3.8724247913955683,4.573521025737604,0.8163030216521646,-0.07161268014748243,-0.39528325534759357,0.296853907104577,0.7629275134900814,2.6218920752564405,0.6194167091334725,0.43037176925252024,0.6678364876940334,4.167651216662402,1.071440649762474,-1.2797763129058037,2.1311616428499702,0.9708486019270329,undefined,1493659617805
903d185fccf839df,3.3388280224797344,1.4177528178949657,-0.09036489141169736,1.963499192328005,3.9111042082906353,0.544905813211021,-0.5674366424948695,2.6802237544218324,3.9690098715010533,4.547915538155267,0.809299704072926,-0.04850259043614344,-0.39528325534759357,0.2912988795750082,0.7629275134900814,2.6218920752564405,0.6456550578826267,0.42291156150089254,0.6679694269967,4.163077877974447,1.0672802614684909,-1.2593064449743527,2.162514491347487,0.9793391151817679,undefined,1493659618850
903d185fccf839df,3.3388280224797344,1.4177528178949657,-0.09036489141169736,1.963499192328005,3.9161236317582704,0.5463243199069285,-0.5690171559478032,2.692912105580876,3.985312134370831,4.5246478093928175,0.8081323268878283,-0.08951948936993444,-0.39528325534759357,0.2857438520454394,0.7629275134900814,2.61178902013168,0.6547888720556246,0.41681293639075423,0.6705092695834994,4.165418442436173,1.0664408082611698,-1.2587509940266566,2.1802560377229603,0.9693687280468244,undefined,1493659619810
903d185fccf839df,3.3388280224797344,1.4177528178949657,-0.09036489141169736,1.963499192328005,3.9161236317582704,0.5463243199069285,-0.5690171559478032,2.692912105580876,3.985312134370831,4.5246478093928175,0.8081323268878283,-0.08951948936993444,-0.39528325534759357,0.2857438520454394,0.7629275134900814,2.61178902013168,0.6547888720556246,0.41681293639075423,0.6705092695834994,4.165418442436173,1.0664408082611698,-1.2587509940266566,2.1802560377229603,0.9693687280468244,undefined,1493659619871
903d185fccf839df,3.3388280224797344,1.4177528178949657,-0.08845085897711502,1.963499192328005,3.9169259153470684,0.5473398690739132,-0.5719967260218588,2.698265688122859,3.9951152648230703,4.4954601939645595,0.8039889382781947,-0.1276364944890287,-0.4866727941176471,0.2829663771329787,0.7997696627270092,2.5875417330558097,0.6547888720556246,0.4140137752742735,0.6724963635543888,4.1698069994018265,1.0667499184479665,-1.261560571167893,2.1881007216050063,0.9678572216113555,undefined,1493659620822
903d185fccf839df,3.286159517147536,1.4177528178949657,-0.08781284816558757,1.963499192328005,3.9114127829987786,0.5406689270189206,-0.5671499937863917,2.6572386042123664,3.9642197667735197,4.517136876046245,0.8057650281987147,-0.16037695913829772,-0.6041736296791445,0.27833714867268106,0.7997696627270092,2.5875417330558097,0.6547888720556246,0.41048632555184295,0.6725593350296734,4.175288845819156,1.0663467242655482,-1.2661620785713827,2.1936005024695446,0.9729429229130847,undefined,1493659621841
903d185fccf839df,3.286159517147536,1.4042513560262044,-0.08972688060016991,1.9565603031041188,3.8899053929699865,0.5284613836244082,-0.5659534320647059,2.557944579905137,3.971345848109958,4.5456068123534585,0.8290732269114431,-0.10640410832412148,-0.6041736296791445,0.27833714867268106,0.7997696627270092,2.5875417330558097,0.6547888720556246,0.40753517347705165,0.6706981832263701,4.179985372178379,1.0654462797442095,-1.2678681751878271,2.195920403170765,0.9771734335786277,undefined,1493659622830
903d185fccf839df,3.286159517147536,1.4042513560262044,-0.08972688060016991,1.9565603031041188,3.8899053929699865,0.5284613836244082,-0.5659534320647059,2.557944579905137,3.971345848109958,4.5456068123534585,0.8290732269114431,-0.10640410832412148,-0.6041736296791445,0.27833714867268106,0.7997696627270092,2.5875417330558097,0.6547888720556246,0.40753517347705165,0.6706981832263701,4.179985372178379,1.0654462797442095,-1.2678681751878271,2.195920403170765,0.9771734335786277,undefined,1493659622891
903d185fccf839df,3.286159517147536,1.3355707181579715,-0.08845085897711502,1.9341061722879993,3.859459730664361,0.5174953249173965,-0.5706739339303284,2.459370755936737,3.9533349866254452,4.572746450500674,0.8296243573026432,0.03312709178762815,-0.6259330436720143,0.27833714867268106,0.803980271477002,2.5875417330558097,0.6547888720556246,0.4077504936174497,0.6714328483500702,4.179615809595367,1.0657617264745258,-1.26721726783914,2.195666344289402,0.9761494549426487,undefined,1493659623843
903d185fccf839df,3.2237886426845495,1.2428221146308536,-0.10631516169988349,1.8991314090478004,3.810139815235391,0.5087932873118286,-0.576809271696145,2.358532992876399,3.9341441126961993,4.534974218938306,0.8163728143027772,0.030320877707168375,-0.6041736296791445,0.2829663771329787,0.803980271477002,2.5875417330558097,0.6547888720556246,0.41162625543592013,0.6693408016593781,4.175950978636789,1.0661257537603852,-1.2682748698714907,2.190971288587287,0.9763099624484826,undefined,1493659624829
903d185fccf839df,3.2570529618417274,1.2428221146308536,-0.10631516169988349,1.9264886182412386,3.7798792932478786,0.5016541700210353,-0.5773825693749807,2.2911729006483,3.9604939674309225,4.5472273306788775,0.8192644398766341,-0.010880074779188375,-0.4823209113190731,0.2857438520454394,0.803980271477002,2.5875417330558097,0.6547888720556246,0.4169775931146129,0.6670528449737184,4.171562420809547,1.066913207498406,-1.27296269289869,2.1870960587983173,0.9787946663950606,undefined,1493659625896
903d185fccf839df,3.2570529618417274,1.2428221146308536,-0.10631516169988349,1.9264886182412386,3.7798792932478786,0.5016541700210353,-0.5773825693749807,2.2911729006483,3.9604939674309225,4.5472273306788775,0.8192644398766341,-0.010880074779188375,-0.4823209113190731,0.2857438520454394,0.803980271477002,2.5875417330558097,0.6547888720556246,0.4169775931146129,0.6670528449737184,4.171562420809547,1.066913207498406,-1.27296269289869,2.1870960587983173,0.9787946663950606,undefined,1493659625991
903d185fccf839df,3.4303049001619743,1.2052531547510847,-0.10631516169988349,1.881602135632239,3.833447202543993,0.48583863626725476,-0.5765489207604233,2.245933994080929,3.8911701913457306,4.51140290870147,0.8357117337634856,-0.0033130564810656808,-0.4605614973262032,0.2950022053598383,0.817664484874062,2.6279539535548513,0.6768160158306497,0.42262024605851245,0.6590694840753999,4.1925505000008005,1.0718084583447507,-1.28153333300682,2.2093083384567875,0.9223396404400075,undefined,1493659626879
903d185fccf839df,3.4303049001619743,1.2052531547510847,-0.10631516169988349,1.881602135632239,3.829147781265935,0.48059319093852293,-0.5758099453324378,2.2063650075290497,3.8626614215248765,4.516959314805889,0.8456532855682591,0.003072336646237488,-0.45185773172905525,0.30333473370341696,0.817664484874062,2.7471698005210285,0.7147398049652225,0.4306124210126013,0.6571593542839897,4.213815751990902,1.0779162223043692,-1.275667017977424,2.252176439249936,0.9287998530757134,undefined,1493659627835
903d185fccf839df,3.5495020438085287,1.2017312985862951,-0.08845085897711502,1.7858426969976333,3.835463201300089,0.46809449246102086,-0.5660901823031063,2.1538111688512473,3.809502883761049,4.571417594289589,0.8366843508798628,0.008217062460413725,-0.3909313725490196,0.30333473370341696,0.817664484874062,2.771417087596899,0.7147398049652225,0.43382955628998304,0.6538708530863129,4.203806762208494,1.076390053191442,-1.273770896840509,2.2464143538955788,0.9340772198138678,undefined,1493659628794
903d185fccf839df,3.5495020438085287,1.2017312985862951,-0.08845085897711502,1.7858426969976333,3.835463201300089,0.46809449246102086,-0.5660901823031063,2.1538111688512473,3.809502883761049,4.571417594289589,0.8366843508798628,0.008217062460413725,-0.3909313725490196,0.30333473370341696,0.817664484874062,2.771417087596899,0.7147398049652225,0.43382955628998304,0.6538708530863129,4.203806762208494,1.076390053191442,-1.273770896840509,2.2464143538955788,0.9340772198138678,undefined,1493659628851
903d185fccf839df,3.5730645459214747,1.172380314856287,-0.08845085897711502,1.7858426969976333,3.860220876626349,0.4656790704937502,-0.5623111507976403,2.1621776647650144,3.8278283179275308,4.580855597658467,0.8448478734826212,0.08323610406442694,-0.22555982620320855,0.30333473370341696,0.817664484874062,2.78152014272166,0.7147398049652225,0.4346148415495929,0.6524644935312142,4.193597593268013,1.0745846580176752,-1.2718386345312982,2.249877739080347,0.9306607087732545,undefined,1493659629823
903d185fccf839df,3.5730645459214747,1.1236579531002424,-0.08845085897711502,1.8583584818053283,3.850017464844104,0.4461181195448951,-0.5649882933424364,2.0192695697886482,3.931671962314348,4.597252885754405,0.8546249462004117,0.06320733677773172,-0.10805899064171122,0.30333473370341696,0.817664484874062,2.78152014272166,0.7364148983630241,0.43517214063749665,0.6460414214522775,4.194413711644017,1.0722454789072284,-1.25512492710302,2.247682388305003,0.9431850021882088,undefined,1493659630806
903d185fccf839df,3.603556838482221,1.1236579531002424,-0.08845085897711502,1.8583584818053283,3.934709897935812,0.4522253853295297,-0.5572224758578764,2.1467530736809732,4.313151030133156,4.885088131440738,0.905408571980006,0.02914925097319793,-0.07324392825311943,0.29963140791858683,0.817664484874062,2.771417087596899,0.7496602072213947,0.4381992877042168,0.6434875853783003,4.196877462484629,1.0717845588637973,-1.2482383265271175,2.236024569955445,0.9529155600687064,undefined,1493659631802
903d185fccf839df,3.603556838482221,1.1236579531002424,-0.08845085897711502,1.8583584818053283,3.934709897935812,0.4522253853295297,-0.5572224758578764,2.1467530736809732,4.313151030133156,4.885088131440738,0.905408571980006,0.02914925097319793,-0.07324392825311943,0.29963140791858683,0.817664484874062,2.771417087596899,0.7496602072213947,0.4381992877042168,0.6434875853783003,4.196877462484629,1.0717845588637973,-1.2482383265271175,2.236024569955445,0.9529155600687064,undefined,1493659631867
903d185fccf839df,3.603556838482221,1.1236579531002424,-0.08845085897711502,1.8583584818053283,3.9548287181662296,0.459925849189829,-0.5113192108327388,2.4092862936614163,4.512471692809509,6.001784509611127,1.2326470286683129,0.06470114328594942,0.0007380793226381577,0.30148303195867826,0.8418750434524929,2.8825503547926052,0.7750456890284465,0.4574831007201853,0.6529542710633313,4.2182043085257614,1.0848202093265458,-1.1519134715458923,2.266243444061656,1.012725166732875,undefined,1493659632837
903d185fccf839df,3.603556838482221,1.255736444589524,-0.10759118332293838,1.9080712787626415,3.9555178599658323,0.4453168601775608,-0.5161396452954498,2.294449277931627,4.696792643750096,6.066294054721088,1.2479975001334256,0.01082697252734975,-0.007965686274509793,0.2968538553014788,0.8418750434524929,2.8825503547926052,0.7583183370573228,0.4703516419182991,0.6483503697389259,4.21841988641199,1.0894610129412101,-1.1675956041688356,2.2160543685977747,1.0344133899104868,undefined,1493659633815
903d185fccf839df,3.603556838482221,1.261606594570738,-0.08845085897711502,1.9327086528896593,3.9645589871925244,0.4366660648571548,-0.5159634484633855,2.235066299654304,4.788437446001691,6.065390327427699,1.2460589585055761,-0.022724048375005763,0.048608790106951884,0.2801888245158706,0.8502961431567377,2.8825503547926052,0.7401252867722743,0.4725175085563072,0.6618961949110618,4.220406285726476,1.0972248966704798,-1.185249503648141,2.2052923569499607,0.9685682520206482,undefined,1493659634794
903d185fccf839df,3.603556838482221,1.261606594570738,-0.08845085897711502,1.9327086528896593,3.9645589871925244,0.4366660648571548,-0.5159634484633855,2.235066299654304,4.788437446001691,6.065390327427699,1.2460589585055761,-0.022724048375005763,0.048608790106951884,0.2801888245158706,0.8502961431567377,2.8825503547926052,0.7401252867722743,0.4725175085563072,0.6618961949110618,4.220406285726476,1.0972248966704798,-1.185249503648141,2.2052923569499607,0.9685682520206482,undefined,1493659634869
903d185fccf839df,3.603556838482221,1.261606594570738,-0.09036489141169736,1.9327086528896593,3.958737282696758,0.432841453605687,-0.5125026237457924,2.2102132122299385,4.853452379397201,6.02867304947626,1.236125695206108,0.055301533834120134,0.07036820409982177,0.2801888245158706,0.859769747803805,2.84213824735245,0.7368237719983354,0.47327112887052686,0.6792133020694034,4.239253983491222,1.1082248690174297,-1.2233294113181075,2.178598909734565,0.9478776586656446,undefined,1493659635795
903d185fccf839df,3.603556838482221,1.255736444589524,-0.09036489141169736,1.9080712787626415,3.9792161060704974,0.43945416334516446,-0.5127734937644285,2.2707998784752492,4.77839927762279,6.003895242699625,1.226475187150567,0.09249767856432593,0.03555314171122996,0.2755596478586712,0.8587170956163067,2.868406122841495,0.7105854232491812,0.4767035841997201,0.6831525066357921,4.270728405067995,1.1172970570486074,-1.2381451877876593,2.1429958184929343,0.8955392367488383,undefined,1493659636822
903d185fccf839df,3.660383383709067,1.198208974773628,-0.06675849138518189,1.8645873054538973,3.9612058506581653,0.47620955910720847,-0.5069458437894995,2.5388898421109998,4.371205320770641,5.939993695418469,1.248866852193398,0.053480455083507905,0.11388703208556152,0.3024088569294985,0.8450328822192468,2.8825504678514915,0.6826966704169183,0.48955945954369917,0.685902253487721,4.306268015596396,1.1296322183520253,-1.2574920277681776,2.162567838688827,0.8509681540439619,undefined,1493659637607
903d185fccf839df,3.660383383709067,1.198208974773628,-0.06675849138518189,1.8645873054538973,3.9612058506581653,0.47620955910720847,-0.5069458437894995,2.5388898421109998,4.371205320770641,5.939993695418469,1.248866852193398,0.053480455083507905,0.11388703208556152,0.3024088569294985,0.8450328822192468,2.8825504678514915,0.6826966704169183,0.48955945954369917,0.685902253487721,4.306268015596396,1.1296322183520253,-1.2574920277681776,2.162567838688827,0.8509681540439619,undefined,1493659637670
903d185fccf839df,3.610486628930022,1.2017312985862951,-0.06675849138518189,1.9264886182412386,4.024144029806287,0.4935344402619514,-0.5040057206364584,2.702667412195656,4.231544873124041,5.903951530284473,1.233523696354351,0.055631885878527056,0.005089962121212133,0.3024088569294985,0.8450328822192468,2.858303180775621,0.6362762059762065,0.49214330051978167,0.6867838517927576,4.312242612698802,1.1317940181841606,-1.26011284801688,2.1526411865139807,0.8451579412294428,undefined,1493659638631
903d185fccf839df,3.657611633155913,1.1577050568152216,-0.06675849138518189,1.8991314090478004,4.08913935097078,0.5105308985424613,-0.5038479322322293,2.8692485228563678,4.065096464482936,5.797676569344235,1.1976926077833454,0.010733752586603728,-0.2342635918003565,0.3061121827143286,0.8587170956163067,2.8825504678514915,0.6826966704169183,0.4884828591074692,0.6820610044571176,4.301248123269419,1.1270877467866494,-1.244727005260679,2.1782482060726025,0.8762479507290261,undefined,1493659639610
903d185fccf839df,3.7172099289359126,1.1283543069091524,-0.06675849138518189,1.8814015397270347,4.161818089313398,0.5220559742341027,-0.5066434159328895,3.005842806124991,3.7951529160001547,5.735236144235347,1.1994637009064055,0.024175439864482888,-0.3604681929590018,0.310741359371528,0.8587170956163067,2.904777166514187,0.7152363310065287,0.48445510677362125,0.6787934934902076,4.291947462058315,1.1231978788978114,-1.2360811757972143,2.195511116836202,0.8888874296117123,undefined,1493659640595
903d185fccf839df,3.7172099289359126,1.1283543069091524,-0.06675849138518189,1.8814015397270347,4.161818089313398,0.5220559742341027,-0.5066434159328895,3.005842806124991,3.7951529160001547,5.735236144235347,1.1994637009064055,0.024175439864482888,-0.3604681929590018,0.310741359371528,0.8587170956163067,2.904777166514187,0.7152363310065287,0.48445510677362125,0.6787934934902076,4.291947462058315,1.1231978788978114,-1.2360811757972143,2.195511116836202,0.8888874296117123,undefined,1493659640641
903d185fccf839df,3.7296843246631326,1.0602605671270713,-0.08845085897711502,1.8662927812571986,4.208792867073924,0.5421083938320591,-0.5147169206518414,3.135762931881119,3.694863693673028,5.713642987884273,1.2220337263607621,0.029631967243154672,-0.36482007575757575,0.32740639015713624,0.8587170956163067,2.9270038651768826,0.7152363310065287,0.4796040719721057,0.6788634617090813,4.2754095321605705,1.1193509889764477,-1.2407896861893024,2.2067570370163363,0.8773283054394193,undefined,1493659641631
903d185fccf839df,3.7172099289359126,1.0344319072097303,-0.08079472923878568,1.8662927812571986,4.198784883345361,0.5576793577058032,-0.5265641966801009,3.1778986524691852,3.7874788018692036,5.650952141689446,1.2620239771747686,0.03386297608904357,-0.36917195855614976,0.2968538553014788,0.8724013090133668,2.8906328215041905,0.7105854232491812,0.4744490557854886,0.6795701398584254,4.258194070286246,1.1151479232338475,-1.2500625814624473,2.1928682044892422,0.8545406410950706,undefined,1493659642673
903d185fccf839df,3.5467305692986533,1.0027330973111754,-0.1037631184537737,1.8662927812571986,4.181947199327918,0.5669869978468778,-0.5334700673845266,3.187220136816427,3.878733175630939,5.58930553228035,1.2937756438921446,0.017969252244166834,-0.5258397393048129,0.2857438520454394,0.8808224087176116,2.84213824735245,0.7047531238501221,0.4607002345801807,0.6816272020481884,4.239654342776655,1.1080004876462453,-1.2735760379279855,2.1193430437148586,0.8370784870052714,undefined,1493659643618
903d185fccf839df,3.5467305692986533,1.0027330973111754,-0.1037631184537737,1.8662927812571986,4.181947199327918,0.5669869978468778,-0.5334700673845266,3.187220136816427,3.878733175630939,5.58930553228035,1.2937756438921446,0.017969252244166834,-0.5258397393048129,0.2857438520454394,0.8808224087176116,2.84213824735245,0.7047531238501221,0.4607002345801807,0.6816272020481884,4.239654342776655,1.1080004876462453,-1.2735760379279855,2.1193430437148586,0.8370784870052714,undefined,1493659643696
903d185fccf839df,3.577222309772844,0.9851226473675337,-0.12098937859789605,1.8662927812571986,4.138253557780366,0.5743473949676757,-0.546114175073468,3.156921340741701,3.9740696118130288,5.558146147121858,1.342186775156655,0.014592345839713217,-0.5258397393048129,0.2811147271913382,0.8808224087176116,2.706757693080873,0.6793676420430703,0.44595714209785214,0.6793742290804736,4.217588370707911,1.0974475369403904,-1.2813884817810381,2.0137763574184335,0.8241048673975433,undefined,1493659644638
903d185fccf839df,3.610486628930022,0.9686862274201349,-0.11269523804803926,1.8184226317602217,4.104629612547192,0.5822435165876002,-0.548286394764013,3.190174611730536,3.978390086707323,5.612589552972037,1.335985032286105,0.019975994394922234,-0.5258397393048129,0.2811147271913382,0.8808224087176116,2.5875418461146955,0.6414438529084976,0.4343931868875678,0.6794162095420079,4.181863977918717,1.0863538115245248,-1.2931482917812862,1.8673670590427365,0.7976354822442905,undefined,1493659645631
903d185fccf839df,3.610486628930022,0.9393352436901268,-0.16182219760412725,1.7256468600135932,4.09654505434287,0.5698473054638159,-0.5683518156183064,3.0480976917297435,4.116300095173588,5.8373502007891105,1.2704167097059134,-0.005821482414918438,-0.5258397393048129,0.2811147271913382,0.8808224087176116,2.547129625615654,0.6194167091334725,0.42433647195137597,0.6750012220562189,4.14309069381967,1.0740574686261177,-1.3069873409039385,1.71720628225742,0.7913514243193664,undefined,1493659646640
903d185fccf839df,3.610486628930022,0.9393352436901268,-0.16182219760412725,1.7256468600135932,4.09654505434287,0.5698473054638159,-0.5683518156183064,3.0480976917297435,4.116300095173588,5.8373502007891105,1.2704167097059134,-0.005821482414918438,-0.5258397393048129,0.2811147271913382,0.8808224087176116,2.547129625615654,0.6194167091334725,0.42433647195137597,0.6750012220562189,4.14309069381967,1.0740574686261177,-1.3069873409039385,1.71720628225742,0.7913514243193664,undefined,1493659646704
903d185fccf839df,3.603556838482221,0.8647842220167413,-0.16947832734245658,1.7194180363650242,4.077166799481967,0.5603836059830097,-0.5728540433381554,2.9652949732607072,4.0623066309945175,5.814164261009085,1.2642692498122197,0.02282261568055534,-0.4213945521390374,0.2727821988477595,0.8808224087176116,2.5511706893831176,0.5621168604759541,0.41495738185024866,0.6759807755544857,4.102177023986179,1.062753178058051,-1.2953252889127727,1.5966852503096811,0.8211315994180671,undefined,1493659647650
903d185fccf839df,3.5730645459214747,0.8812206419641401,-0.19053268412286228,1.7194180363650242,4.067097101631189,0.5546816283559471,-0.5773746800750706,2.915845532132296,4.047137605860537,5.796316770467152,1.2707680291957055,0.005377880601286466,-0.4213945521390374,0.2635238455333606,0.8671381953205516,2.4764082397423315,0.5120993406497362,0.4051159870544549,0.6793462417146258,4.082051254616661,1.0549311033793611,-1.2660078911622499,1.5090896773769917,0.8692137393807615,undefined,1493659648715
903d185fccf839df,3.5730645459214747,0.8812206419641401,-0.16947832734245658,1.7194180363650242,4.061511969473649,0.5556016792717691,-0.5683228873873857,2.936588955301323,4.048280018512199,5.770108978967031,1.2648169445702622,0.049433788415156464,-0.41704266934046347,0.2635238455333606,0.8566118206902456,2.4764082397423315,0.5120993406497362,0.39763678021157167,0.6916536324320757,4.0794797113865835,1.0533054685895655,-1.2083299520554702,1.4621817153916996,0.9492691829430038,undefined,1493659649588
903d185fccf839df,3.5730645459214747,0.8812206419641401,-0.16947832734245658,1.7194180363650242,4.061511969473649,0.5556016792717691,-0.5683228873873857,2.936588955301323,4.048280018512199,5.770108978967031,1.2648169445702622,0.049433788415156464,-0.41704266934046347,0.2635238455333606,0.8566118206902456,2.4764082397423315,0.5120993406497362,0.39763678021157167,0.6916536324320757,4.0794797113865835,1.0533054685895655,-1.2083299520554702,1.4621817153916996,0.9492691829430038,undefined,1493659649701
903d185fccf839df,3.5730645459214747,0.8988310919077818,-0.16182219760412725,1.7345267948348606,4.0814456493859534,0.5467412526256181,-0.5642756161905084,2.909247092809447,4.035174047676821,5.7752879362116225,1.245831518328041,0.039571611420369884,-0.4213945521390374,0.2607463706208999,0.8566118206902456,2.4279136655905904,0.49026619477771805,0.3844135934145373,0.6935567649660636,4.051731713203943,1.042431563518434,-1.1592268413489404,1.4082008058381628,1.0102257623812858,undefined,1493659650648
903d185fccf839df,3.5730645459214747,0.8988310919077818,-0.16182219760412725,1.7345267948348606,4.101842187263406,0.5485091457922322,-0.5617299638188945,2.9366313056388256,4.048346505643896,5.7616157295775405,1.2475622607456238,0.02320943843044161,-0.4300983177361854,0.2561171421606022,0.854506486866314,2.3895221465636096,0.49026619477771805,0.3700504770877724,0.7074944130643251,4.030173889256046,1.0375102225474446,-1.1174055013056565,1.3613755696169565,0.9812442735071577,undefined,1493659651672
903d185fccf839df,3.62989109114832,0.8988310919077818,-0.12098937859789605,1.7407556184834294,4.056451406842803,0.5562492080724252,-0.5558102702644474,2.980090171393629,3.883740205814723,5.742783035361857,1.266365045667399,0.029073516316294158,-0.45185773172905525,0.26537544367190297,0.854506486866314,2.3713366247272636,0.4466820070662399,0.3559470109036505,0.7096494312303017,4.011572566833837,1.0290011771503476,-1.1027929369677363,1.3334253557983695,0.9919108101941096,undefined,1493659652599
903d185fccf839df,3.62989109114832,0.8988310919077818,-0.12098937859789605,1.7407556184834294,4.056451406842803,0.5562492080724252,-0.5558102702644474,2.980090171393629,3.883740205814723,5.742783035361857,1.266365045667399,0.029073516316294158,-0.45185773172905525,0.26537544367190297,0.854506486866314,2.3713366247272636,0.4466820070662399,0.3559470109036505,0.7096494312303017,4.011572566833837,1.0290011771503476,-1.1027929369677363,1.3334253557983695,0.9919108101941096,undefined,1493659652687
903d185fccf839df,3.62989109114832,0.9733821135811673,-0.1037631184537737,1.8814015397270347,4.094066199158025,0.5656383719707445,-0.5363155192496293,3.104787346495337,4.093371614690268,6.061484090919818,1.359731632813518,0.019825079588757392,-0.6520443404634582,0.26259799466099126,0.8471380393495673,2.3612335696025033,0.42994676502643886,0.34497201972666014,0.719046147913475,3.9846714841604154,1.0238790306017316,-1.0917238188722698,1.3187477888517494,0.9979502295177068,undefined,1493659653648
903d185fccf839df,3.62989109114832,1.0027330973111754,-0.09291693465780713,1.938830433783353,4.092986199970726,0.5720484394870315,-0.506377808532806,3.229512491748174,4.121149239735629,6.200944068279566,1.4412297003125802,0.012309821565227728,-0.6563962232620321,0.2681529444859128,0.8681907297123092,2.3329451057002832,0.42994676502643886,0.3588411658818488,0.7257141079754862,3.9643609352225675,1.0279900632214325,-1.0381046072685165,1.3207978676192207,0.9990242009313797,undefined,1493659654620
903d185fccf839df,3.6728575033930086,1.0344319072097303,-0.09483096709238947,1.9565603031041188,4.049539414399902,0.5563074413157384,-0.5056835397637024,3.0913836931044294,4.334562522321365,6.2598222324498405,1.4672357533536737,0.015122400015177086,-0.6825075200534759,0.27463382288785093,0.8471380393495673,2.3208215752212342,0.40526014633164087,0.3657630737254148,0.7164993079958487,3.929083095641602,1.0217835503003305,-1.052911307355563,1.3069193729539308,0.9498219404517527,undefined,1493659655641
903d185fccf839df,3.6728575033930086,1.0344319072097303,-0.09483096709238947,1.9565603031041188,4.049539414399902,0.5563074413157384,-0.5056835397637024,3.0913836931044294,4.334562522321365,6.2598222324498405,1.4672357533536737,0.015122400015177086,-0.6825075200534759,0.27463382288785093,0.8471380393495673,2.3208215752212342,0.40526014633164087,0.3657630737254148,0.7164993079958487,3.929083095641602,1.0217835503003305,-1.052911307355563,1.3069193729539308,0.9498219404517527,undefined,1493659655713
903d185fccf839df,3.692261965611307,1.0496942971608865,-0.09546897790391691,1.983917512297557,4.0174583237585075,0.5446100017416711,-0.5012943937237304,2.9997804595038775,4.464874178766306,6.258472159883871,1.4618704596489693,-0.028429900451004023,-0.6825075200534759,0.27463382288785093,0.8471380393495673,2.2965744012042495,0.391361962883903,0.3651361123068897,0.7178846773201806,3.888893151815187,1.0159929015365643,-1.056493055863244,1.3206687364836442,0.830442792863771,undefined,1493659656670
903d185fccf839df,3.699192032102386,1.0602605671270713,-0.07186257787740144,2.0482753282832324,3.988298373356632,0.5359498904012525,-0.49774941498840924,2.928845072826205,4.566428101045762,6.2513979236764925,1.457254557931692,-0.006283609162951733,-0.6825075200534759,0.27833714867268106,0.8471380393495673,2.2723271141283794,0.391361962883903,0.3622672889483744,0.7159955377595374,3.857126160219191,1.0097725073691297,-1.0700995883944595,1.334686456021891,0.6935251225390237,undefined,1493659657656
903d185fccf839df,3.7837388432935466,1.1283543069091524,-0.07632865355809357,2.0626621207538207,3.9663795537978714,0.5237702987779711,-0.49332608140520473,2.840833190396756,4.723082830489433,6.239146594711315,1.4559236067646941,-0.016572645977692917,-0.5606548016934046,0.2885213010563511,0.8471380393495673,2.2723271141283794,0.391361962883903,0.3578785588858184,0.7125880907463715,3.842205065329745,1.0054141106015964,-1.0960053824312874,1.3263721232234633,0.5934686100930666,undefined,1493659658612
903d185fccf839df,3.7837388432935466,1.1283543069091524,-0.07632865355809357,2.0626621207538207,3.9663795537978714,0.5237702987779711,-0.49332608140520473,2.840833190396756,4.723082830489433,6.239146594711315,1.4559236067646941,-0.016572645977692917,-0.5606548016934046,0.2885213010563511,0.8471380393495673,2.2723271141283794,0.391361962883903,0.3578785588858184,0.7125880907463715,3.842205065329745,1.0054141106015964,-1.0960053824312874,1.3263721232234633,0.5934686100930666,undefined,1493659658679
903d185fccf839df,3.8253192422400195,1.1577050568152216,-0.08462282587506903,2.0626621207538207,3.9434835930744714,0.5151008704897413,-0.4915930392531742,2.7695906010003486,4.87716026886964,6.254648178392773,1.4650155764230022,-0.016189973196936196,-0.5301916221033868,0.2885213010563511,0.8471380393495673,2.2723271141283794,0.391361962883903,0.35764423991992494,0.7063889164197427,3.836646224840847,1.0015738538069368,-1.0882247315041274,1.3301157119082962,0.5261815316552308,undefined,1493659659676
903d185fccf839df,3.8253192422400195,1.1577050568152216,-0.08462282587506903,2.0482753282832324,3.955106431716198,0.5207865429942353,-0.49034125149507646,2.817630141812961,4.8398495668122345,6.240310780755078,1.459189619116547,-0.025215800697317638,-0.5388953877005348,0.2885213010563511,0.8450327938724412,2.2723271141283794,0.391361962883903,0.3578468941176015,0.6959496739800342,3.833828308852995,0.9965441477526464,-1.0626495949883819,1.334994256596985,0.45956529913446315,undefined,1493659660651
903d185fccf839df,3.8253192422400195,1.131876163073942,-0.07632868532521224,2.008586270842209,3.9768401109568465,0.5329591473705575,-0.4847371350764381,2.921785154777654,4.814580118908404,6.215553715558313,1.4536077959494753,-0.022251079456604383,-0.5345435049019608,0.2829663771329787,0.8492433731734989,2.2723271141283794,0.391361962883903,0.370253130355289,0.6771632371615309,3.8363382554472776,0.9945442563084483,-1.0527427851973,1.3952305447259858,0.35465468965707053,undefined,1493659661624
903d185fccf839df,3.8253192422400195,1.131876163073942,-0.07632868532521224,2.008586270842209,3.9768401109568465,0.5329591473705575,-0.4847371350764381,2.921785154777654,4.814580118908404,6.215553715558313,1.4536077959494753,-0.022251079456604383,-0.5345435049019608,0.2829663771329787,0.8492433731734989,2.2723271141283794,0.391361962883903,0.370253130355289,0.6771632371615309,3.8363382554472776,0.9945442563084483,-1.0527427851973,1.3952305447259858,0.35465468965707053,undefined,1493659661711
903d185fccf839df,3.8253192422400195,1.2486922646120673,-0.08334680425201414,1.9990978851658856,3.979925819116138,0.5585551568307157,-0.48248602121651357,3.111795632394525,4.691948133491089,6.199630574193222,1.4222713827483109,-0.011564475704169304,-0.517135973707665,0.2820405262606093,0.8524013297359935,2.2723271141283794,0.391361962883903,0.3851862111811593,0.6600420404875224,3.851105365639939,0.9963011399640406,-1.0478690680049298,1.4784517912400674,0.2756581603568685,undefined,1493659662639
903d185fccf839df,3.8530395082043345,1.374900606120135,-0.06548250152924567,1.9813680158451201,3.954489291262246,0.5696749451766076,-0.47645324617859963,3.1912567185805614,4.582188814504093,6.155221177753152,1.419839955074881,-0.033504336195970534,-0.45620961452762926,0.28852137876099837,0.8439802300317486,2.2965744012042495,0.391361962883903,0.39782043412207285,0.6486372396026928,3.865887872406787,0.9975288375014821,-1.0123871652340664,1.5307959947798166,0.26831798338615037,undefined,1493659663640
903d185fccf839df,3.8530395082043345,1.374900606120135,-0.04442801768036527,1.9813680158451201,3.982065244836332,0.5763645192716257,-0.4695079286186295,3.2643099263129387,4.588356494750775,6.148252010575258,1.4176413109327581,-0.025844762077204007,-0.43445020053475936,0.2727821988477595,0.8450328822192468,2.2965744012042495,0.3997695582777626,0.40151254021401583,0.6322786959075968,3.859235744189388,0.9899510561392487,-0.9859244891827448,1.5279858437058393,0.2969082079212167,undefined,1493659664602
903d185fccf839df,3.8530395082043345,1.374900606120135,-0.04442801768036527,1.9813680158451201,3.982065244836332,0.5763645192716257,-0.4695079286186295,3.2643099263129387,4.588356494750775,6.148252010575258,1.4176413109327581,-0.025844762077204007,-0.43445020053475936,0.2727821988477595,0.8450328822192468,2.2965744012042495,0.3997695582777626,0.40151254021401583,0.6322786959075968,3.859235744189388,0.9899510561392487,-0.9859244891827448,1.5279858437058393,0.2969082079212167,undefined,1493659664678
903d185fccf839df,3.890461591212882,1.374900606120135,-0.04442801768036527,1.9813680158451201,4.044468567490387,0.5789499750725459,-0.46993395717256087,3.336489153705424,4.564794676035342,6.039449871156486,1.4122405017158004,-0.017977609991235384,-0.4605614973262032,0.2727821988477595,0.8376645230493056,2.2985949896174245,0.3998168102709066,0.4007969175507872,0.6163889389266132,3.8494577314521568,0.9801824403864933,-0.9511271180533949,1.5434801563968146,0.3410821384039941,undefined,1493659665932
903d185fccf839df,3.9708509145959514,1.374900606120135,-0.05144613660716717,1.9813680158451201,4.09687419415145,0.579972510558692,-0.46843496774157256,3.3922894653895237,4.524333734861794,5.96099345846757,1.4085037428227893,-0.02075404913136829,-0.42574643493761144,0.2727821988477595,0.8218749463793789,2.3006155780305995,0.40216191298279025,0.4006512598295971,0.6061176206819922,3.849242153565929,0.9745435960917743,-0.9314052298058263,1.5440875055993908,0.37100602994995613,undefined,1493659666665
903d185fccf839df,3.9708509145959514,1.374900606120135,-0.05144613660716717,1.9813680158451201,4.100618188329571,0.5794647359751994,-0.46904508276710455,3.3923790635731663,4.522099302878258,5.952238516221756,1.4097788817714894,-0.03018782867495758,-0.3996351381461676,0.2727821988477595,0.8376645230493056,2.2985949896174245,0.40216191298279025,0.3987767081024492,0.6087973993150472,3.8619458710187287,0.9762690974546497,-0.9345034362282102,1.5485998042455174,0.37383324385973477,undefined,1493659667655
903d185fccf839df,3.9708509145959514,1.374900606120135,-0.05144613660716717,1.9813680158451201,4.100618188329571,0.5794647359751994,-0.46904508276710455,3.3923790635731663,4.522099302878258,5.952238516221756,1.4097788817714894,-0.03018782867495758,-0.3996351381461676,0.2727821988477595,0.8376645230493056,2.2985949896174245,0.40216191298279025,0.3987767081024492,0.6087973993150472,3.8619458710187287,0.9762690974546497,-0.9345034362282102,1.5485998042455174,0.37383324385973477,undefined,1493659667738
903d185fccf839df,3.9708509145959514,1.374900606120135,-0.05208414741869462,1.9813680158451201,4.110718741192923,0.5777923429153439,-0.4660865510552881,3.391919580827356,4.51780656893895,5.9456893594736355,1.4112602860775267,-0.026601171521920153,-0.08629957664884134,0.28852137876099837,0.8376645230493056,2.2965744012042495,0.40216191298279025,0.39279840893879114,0.6109454199544512,3.8758198711331837,0.9773832248171467,-0.9448084023919829,1.555273797408674,0.3787898079174701,undefined,1493659668640
903d185fccf839df,3.9708509145959514,1.2486922646120673,-0.05208414741869462,2.026455094359324,4.089026206748953,0.5685615680576082,-0.46732781959953124,3.3133723754231754,4.5614588948666395,5.969911111247169,1.4209803670082983,-0.010792832201996781,-0.08629957664884134,0.296853907104577,0.8376645230493056,2.2945536997321887,0.39049630028046944,0.396661504637367,0.6139120674236069,3.883580687530414,0.981052367641788,-0.9429703429239439,1.547851787912533,0.3670835407661253,undefined,1493659669597
903d185fccf839df,3.9708509145959514,1.1770762010173195,-0.05144613660716717,2.026455094359324,4.098910762233085,0.5618417124905076,-0.4692949145544417,3.2727399523229077,4.5717977804103995,5.957185039185624,1.4284830653202392,-0.010419506021956152,-0.08629957664884134,0.2857438520454394,0.8239803096522456,2.2945535866733024,0.38308945829978286,0.4055972878062837,0.6195514973694667,3.927635638457924,0.9944306746215777,-0.9546827982758641,1.5598730339032683,0.3382593886360458,undefined,1493659670686
903d185fccf839df,3.9708509145959514,1.1770762010173195,-0.05144613660716717,2.026455094359324,4.098910762233085,0.5618417124905076,-0.4692949145544417,3.2727399523229077,4.5717977804103995,5.957185039185624,1.4284830653202392,-0.010419506021956152,-0.08629957664884134,0.2857438520454394,0.8239803096522456,2.2945535866733024,0.38308945829978286,0.4055972878062837,0.6195514973694667,3.927635638457924,0.9944306746215777,-0.9546827982758641,1.5598730339032683,0.3382593886360458,undefined,1493659670748
903d185fccf839df,3.9763949677888144,1.1324632949840328,-0.04442801768036527,2.0729440868278846,4.067539384509297,0.5490285674882862,-0.4706781925511918,3.1661173734269963,4.657287815660871,6.017165740650639,1.453547655558914,0.000019068093763764657,-0.08629957664884134,0.2801888245158706,0.8239803096522456,2.2945535866733024,0.3648964080147344,0.41559067307316166,0.6217764833628254,3.926696333272237,0.9996163389208246,-0.9664024083416534,1.5164518318401927,0.32727232961671177,undefined,1493659671656
903d185fccf839df,3.9763949677888144,1.2017312985862951,-0.05144613660716717,2.0052332266975026,4.053777122964111,0.5335624183496169,-0.469021414666872,3.0519234970191316,4.644359848658972,6.033858716741137,1.4782262720467534,-0.022610689258616465,-0.08629957664884134,0.2764854987310405,0.8092434440676874,2.2945535866733024,0.3557625938417364,0.42121432674863235,0.6240854310622356,3.9292062798665195,1.0031607197545904,-0.9797126142152413,1.4953695301639884,0.3137959590471869,undefined,1493659672657
903d185fccf839df,3.9763949677888144,1.172380314856287,-0.05080812579563972,2.0052332266975026,4.051586269576939,0.5305413947746377,-0.4555962551528175,3.0546601363119894,4.626658625734565,6.0990778946171345,1.502141803720355,0.000817467590527662,-0.10805899064171122,0.27370799791703065,0.8018749965509407,2.2945535866733024,0.34019785399473484,0.42745860926990736,0.6249670291715265,3.9322859690634764,1.0065288696654202,-0.9939840820617253,1.4724048210004668,0.3054102026181755,undefined,1493659673638
903d185fccf839df,3.9763949677888144,1.172380314856287,-0.05080812579563972,2.0052332266975026,4.051586269576939,0.5305413947746377,-0.4555962551528175,3.0546601363119894,4.626658625734565,6.0990778946171345,1.502141803720355,0.000817467590527662,-0.10805899064171122,0.27370799791703065,0.8018749965509407,2.2945535866733024,0.34019785399473484,0.42745860926990736,0.6249670291715265,3.9322859690634764,1.0065288696654202,-0.9939840820617253,1.4724048210004668,0.3054102026181755,undefined,1493659673697
903d185fccf839df,3.995799153963835,1.1236579531002424,-0.05080812579563972,2.0219580592110966,4.008633198520236,0.5105052790235272,-0.45468371256529105,2.8891831030156396,4.735862345693763,6.143923744387637,1.5296681289584004,-0.025665031484885515,-0.07324392825311943,0.2764854987310405,0.822927569117942,2.262223945944733,0.3181455779919012,0.4230888781103604,0.628570387354136,3.9406011293352243,1.0085277348943682,-1.005904567420223,1.4763229102568585,0.29904615054119515,undefined,1493659674662
903d185fccf839df,3.995799153963835,1.1236579531002424,-0.05080812579563972,2.0219580592110966,3.995220652382802,0.5101954900449155,-0.45468634236875466,2.875287343058302,4.754123102852354,6.155383924023946,1.5300111065296496,-0.03872599634719699,0.04425690730837791,0.2764854987310405,0.8018749965509407,2.274347476423782,0.3181455779919012,0.4201883901608014,0.623245813805971,3.9518111983740107,1.007622804029366,-1.0104925356641543,1.47088440437773,0.3085933705180896,undefined,1493659675745
903d185fccf839df,3.9154098305807654,1.1236579531002424,-0.05017011498411228,2.0219580592110966,3.9796583935578065,0.5122685137162359,-0.45652720662647,2.872794231669907,4.763244212026386,6.1665881454578235,1.5268241776835219,-0.03872599634719699,0.04425690730837791,0.30703803358669796,0.7860854198810141,2.274347476423782,0.308825068001464,0.4211636633210199,0.6078948111707355,3.952257753305415,1.0014749532206555,-1.0267643485071487,1.4698163655722485,0.336351288877801,undefined,1493659676745
903d185fccf839df,3.9154098305807654,1.1236579531002424,-0.05017011498411228,2.0219580592110966,3.9796583935578065,0.5122685137162359,-0.45652720662647,2.872794231669907,4.763244212026386,6.1665881454578235,1.5268241776835219,-0.07460966632967966,0.057312555704099835,0.30703803358669796,0.7860854198810141,2.274347476423782,0.308825068001464,0.4211636633210199,0.6078948111707355,3.952257753305415,1.0014749532206555,-1.0267643485071487,1.4698163655722485,0.336351288877801,undefined,1493659676905
903d185fccf839df,3.9154098305807654,1.1236579531002424,-0.05017011498411228,2.0219580592110966,3.9727669791467104,0.5143555118814748,-0.45644042301396454,2.8795595609815425,4.770599914157966,6.180100492329839,1.5221247157810913,-0.0721872418861064,0.031201258912655985,0.2801888245158706,0.789243258647768,2.3066771171523515,0.3293147996345447,0.41355146469966814,0.5897940611942063,3.9412324668505168,0.9896666184113315,-1.0460810496102808,1.4891905251463644,0.3830832571629375,undefined,1493659677618
903d185fccf839df,3.877987747572218,1.1236579531002424,-0.05017011498411228,2.0219580592110966,3.9678092738983572,0.5119680426132331,-0.4559696877029461,2.8597497352547356,4.75428363950903,6.191847052981639,1.5281516649628484,-0.1077607929963644,0.08777573529411767,0.2838921762022498,0.7808223061881989,2.3066771171523515,0.3429577322443822,0.40649656543198015,0.5757304716624064,3.934487947987365,0.9814143441585813,-1.0504838946319808,1.4960568969255545,0.3979274891624165,undefined,1493659678620
903d185fccf839df,3.877987747572218,1.1066346350666916,-0.041237963622728045,2.0219580592110966,3.959385288021852,0.5055626354264477,-0.4585968638509926,2.8079698358547156,4.772453318778071,6.21061571006891,1.5380278626616577,-0.10622241739637013,0.12259079768270946,0.2838921762022498,0.7808223061881989,2.3066771171523515,0.3520915464173802,0.40248147877509355,0.5708397009146626,3.923863020279407,0.9765487929282549,-1.04834317195951,1.4995772560895198,0.39882643097992565,undefined,1493659679622
903d185fccf839df,3.877987747572218,1.1066346350666916,-0.041237963622728045,2.0219580592110966,3.959385288021852,0.5055626354264477,-0.4585968638509926,2.8079698358547156,4.772453318778071,6.21061571006891,1.5380278626616577,-0.10622241739637013,0.12259079768270946,0.2838921762022498,0.7808223061881989,2.3066771171523515,0.3520915464173802,0.40248147877509355,0.5708397009146626,3.923863020279407,0.9765487929282549,-1.04834317195951,1.4995772560895198,0.39882643097992565,undefined,1493659679682
903d185fccf839df,3.877987747572218,1.0860889932204736,-0.03613387713050849,2.0219580592110966,3.951393303049385,0.4956610403263263,-0.46303597628259924,2.7295404176350244,4.831491393613161,6.2504832062506885,1.5482613207593776,-0.12248964532329581,0.2400916332442068,0.2838921762022498,0.7945065195852589,2.3066771171523515,0.3520915464173802,0.40156320226853504,0.5646335296486987,3.9209065196153077,0.9740359106573439,-1.048474055614001,1.4985146997305168,0.39229732678764684,undefined,1493659680669
903d185fccf839df,3.8585835613971975,1.0109510734609362,-0.03613387713050849,1.9575584925362215,3.9965577973949484,0.4800854165869801,-0.4651161527864465,2.6354905528162953,4.994768742387818,6.2181072951562255,1.5643826746044012,-0.1230794851638398,0.20092468805704103,0.2838921762022498,0.7945065195852589,2.3066771171523515,0.3520915464173802,0.4025004777777625,0.5613520255861025,3.921106700927351,0.9734514754731456,-1.0493603891095369,1.4993189351534744,0.3889874919990574,undefined,1493659681651
903d185fccf839df,3.8585835613971975,1.0109510734609362,-0.029115758203706592,1.9575584925362215,4.004467498023429,0.4797173980762474,-0.4688478476004214,2.631189062179176,5.01745396188726,6.259463271916995,1.5533683488144059,-0.1348776540397513,0.46203765597147956,0.2838921762022498,0.7702959610068281,2.3066771171523515,0.3369874436336572,0.4040647150598615,0.5529558530234548,3.922507959772596,0.9710415117086979,-1.0470382307953046,1.5013275551379757,0.377786604295922,undefined,1493659682616
903d185fccf839df,3.8585835613971975,1.0109510734609362,-0.029115758203706592,1.9575584925362215,4.004467498023429,0.4797173980762474,-0.4688478476004214,2.631189062179176,5.01745396188726,6.259463271916995,1.5533683488144059,-0.1348776540397513,0.46203765597147956,0.2838921762022498,0.7702959610068281,2.3066771171523515,0.3369874436336572,0.4040647150598615,0.5529558530234548,3.922507959772596,0.9710415117086979,-1.0470382307953046,1.5013275551379757,0.377786604295922,undefined,1493659682676
903d185fccf839df,3.896005644405745,1.0637826571157998,0.007250858053357781,2.0219580592110966,4.06794053622628,0.4807725438075293,-0.4612135202890438,2.705428586228013,5.087847330645747,6.38545759622832,1.5655820597956092,-0.13063041709986453,0.8188920454545455,0.2950021794582892,0.7702959610068281,2.3208215752212342,0.3369874436336572,0.40850410840607665,0.5544951522727124,3.9072788972127563,0.9714748543978667,-1.0267234978546707,1.4861531632100626,0.3324330572189891,undefined,1493659683719
903d185fccf839df,3.877987747572218,1.0373668652883679,-0.029115758203706592,1.9821958666632393,4.0170571912465265,0.46180554804966933,-0.4667808194591913,2.5332956286016044,5.230562275692978,6.418167652410353,1.5881605022908458,-0.14024734066643302,1.5630640040106953,0.2950021794582892,0.7945065195852589,2.3208215752212342,0.3369874436336572,0.4048373336680568,0.5611841033484745,3.9016738635549517,0.9718996238385277,-1.0338499583636571,1.4842293611219513,0.33647520892145116,undefined,1493659684657
903d185fccf839df,3.877987747572218,1.0901984489432315,-0.029115758203706592,2.0465954333381147,4.0314263103753625,0.46674120532758767,-0.4677301795570891,2.576438800524401,5.2613255002256,6.405231722669927,1.5804827104365304,-0.15944799950417882,2.263717134581105,0.3255547143139466,0.7945065195852589,2.355171804362979,0.3520915464173802,0.41173390891748674,0.5618697908266231,3.9172416921030817,0.978110822312694,-1.0528901512327669,1.529238072413265,0.30564444284574344,undefined,1493659685670
903d185fccf839df,3.877987747572218,1.0901984489432315,-0.029115758203706592,2.0465954333381147,4.0314263103753625,0.46674120532758767,-0.4677301795570891,2.576438800524401,5.2613255002256,6.405231722669927,1.5804827104365304,-0.15944799950417882,2.263717134581105,0.3255547143139466,0.7945065195852589,2.355171804362979,0.3520915464173802,0.41173390891748674,0.5618697908266231,3.9172416921030817,0.978110822312694,-1.0528901512327669,1.529238072413265,0.30564444284574344,undefined,1493659685770
903d185fccf839df,3.877987747572218,1.1125047850479055,-0.02273565008843214,2.0465954333381147,4.056122267482339,0.47205885932134944,-0.4694553322987288,2.627042268162603,5.260640855196097,6.37421030566835,1.5677852684903895,-0.17815553200229986,2.655386586452763,0.35147802070930645,0.7945065195852589,2.355171804362979,0.3540133536545442,0.41989707347820837,0.5631502072354061,3.9170877091294725,0.9824265955007914,-1.0720887326855855,1.5295285371117937,0.3060483679014021,undefined,1493659686626
903d185fccf839df,3.877987747572218,1.1330504268941233,-0.02273565008843214,2.161681050382804,4.080067369435698,0.4824845331997329,-0.470851759247327,2.7123118026330273,5.243362024620605,6.368394345310406,1.5608327646701154,-0.1700779966343455,3.490948083778966,0.36629137565172504,0.7808223061881989,2.3571925058350396,0.37220640393959276,0.41568566603793916,0.5653052252056369,3.8990253329306115,0.9785980152342472,-1.0659991540317977,1.552698526623168,0.32470110299607735,undefined,1493659687635
903d185fccf839df,3.877987747572218,1.1330504268941233,-0.02273565008843214,2.137043676255786,4.091237635799313,0.4870661464608364,-0.47112788887289025,2.750978863291007,5.20424484750353,6.357825584538009,1.554785669377387,-0.1906938867750035,3.2124275846702317,0.36629137565172504,0.7660854406036407,2.3571925058350396,0.38893375591071644,0.4133171452022547,0.5680829590319219,3.8937590652610967,0.9771926668911032,-1.0632081566927936,1.5559294662575966,0.33027084156870323,undefined,1493659688610
903d185fccf839df,3.877987747572218,1.1330504268941233,-0.02273565008843214,2.137043676255786,4.091237635799313,0.4870661464608364,-0.47112788887289025,2.750978863291007,5.20424484750353,6.357825584538009,1.554785669377387,-0.1906938867750035,3.2124275846702317,0.36629137565172504,0.7660854406036407,2.3571925058350396,0.38893375591071644,0.4133171452022547,0.5680829590319219,3.8937590652610967,0.9771926668911032,-1.0632081566927936,1.5559294662575966,0.33027084156870323,undefined,1493659688667
903d185fccf839df,3.8585835613971975,1.1066346350666916,-0.02273565008843214,2.087330879298473,4.108558750180243,0.4931967036872007,-0.47080705245750487,2.8056939660267686,5.1209478411860845,6.333804775153505,1.5436914405834925,-0.18823059672787285,3.2254832330659537,0.36629137565172504,0.7808223061881989,2.3571925058350396,0.38893375591071644,0.4137857831340416,0.5644516143643212,3.8940054397420463,0.9770393009060951,-1.0646342664680357,1.556185455828289,0.3275258421300276,undefined,1493659689648
903d185fccf839df,3.890461591212882,1.0080161153822984,-0.02273565008843214,2.0729440868278846,4.1575495236240645,0.5059120198096088,-0.47017326916806507,2.929552693846824,5.016728195018632,6.267842763427619,1.5211476468521457,-0.17730039078008028,3.7694685828877006,0.36629137565172504,0.8039801242323261,2.3571925058350396,0.38893375591071644,0.4138871103214665,0.5699441105416062,3.895345105397848,0.9792466308756652,-1.0655251225635651,1.5561127267252721,0.33283255475761975,undefined,1493659690654
903d185fccf839df,3.8308630193896045,1.0080161153822984,0.007250858053357781,2.057915721057842,4.192922037445802,0.5080176518704695,-0.45459955842173777,3.015143985564575,4.883600073848943,6.176561695599856,1.4537924736131944,-0.18963236965291352,4.256879456327986,0.36629137565172504,0.8176643376293862,2.3571925058350396,0.4005993686130373,0.4122912086254971,0.5648014546757067,3.889201125301298,0.9760763232887417,-1.0591913093409588,1.5605905255167283,0.3423519065386865,undefined,1493659691600
903d185fccf839df,3.8308630193896045,1.0080161153822984,0.007250858053357781,2.057915721057842,4.192922037445802,0.5080176518704695,-0.45459955842173777,3.015143985564575,4.883600073848943,6.176561695599856,1.4537924736131944,-0.18963236965291352,4.256879456327986,0.36629137565172504,0.8176643376293862,2.3571925058350396,0.4005993686130373,0.4122912086254971,0.5648014546757067,3.889201125301298,0.9760763232887417,-1.0591913093409588,1.5605905255167283,0.3423519065386865,undefined,1493659691681
903d185fccf839df,3.9015502496851635,1.0990033231791443,0.0570157013524985,2.026455094359324,4.438369634030902,0.5493616481405768,-0.4259636000920686,3.56132257674711,6.987332255364099,8.03500957623533,1.787813781538159,-0.17652867190520163,5.701704545454546,0.36629137565172504,0.7945065195852589,2.3935633233899596,0.4005993686130373,0.41425442106582866,0.5592459870231369,3.896530783772102,0.9758631623592435,-1.0529414357118843,1.5594469291544204,0.34127038462838616,undefined,1493659692608
903d185fccf839df,3.911252342772674,1.0990033231791443,0.0697759175830474,2.026455094359324,4.432630215543557,0.5467761928035552,-0.4210984587085952,3.556221935689764,7.037055727110919,7.990194307429679,1.7607993203078804,-0.17862623966513116,6.241338012477718,0.37092050050582626,0.7702959610068281,2.3935633233899596,0.40216191298279025,0.4267556516081671,0.5492195567615907,3.8940208363162316,0.9776268824465226,-1.0598558986315851,1.5418232517786732,0.35397283681349806,undefined,1493659693607
903d185fccf839df,3.911252342772674,1.0990033231791443,0.06722387433693762,2.026455094359324,4.425234799394903,0.5436783044091361,-0.41395853559411,3.5559690175654812,7.106539808050954,7.908867999923862,1.7192346912990433,-0.17374661982681786,6.345783199643494,0.35610714556340767,0.7702959610068281,2.395583911803134,0.40216191298279025,0.4272432883654496,0.5493454981461928,3.8811323377873235,0.9769457866696765,-1.0581214116173014,1.5533630742749185,0.31619557518481306,undefined,1493659694614
903d185fccf839df,3.911252342772674,1.0990033231791443,0.06722387433693762,2.026455094359324,4.425234799394903,0.5436783044091361,-0.41395853559411,3.5559690175654812,7.106539808050954,7.908867999923862,1.7192346912990433,-0.17374661982681786,6.345783199643494,0.35610714556340767,0.7702959610068281,2.395583911803134,0.40216191298279025,0.4272432883654496,0.5493454981461928,3.8811323377873235,0.9769457866696765,-1.0581214116173014,1.5533630742749185,0.31619557518481306,undefined,1493659694670
903d185fccf839df,3.911252342772674,1.0990033231791443,0.06211978784471806,2.026455094359324,4.434224498954615,0.5466527423172631,-0.4101163890019269,3.5866015502413795,7.0353858591505745,7.845609628323449,1.6972535645789657,-0.1957934565822359,7.172640931372549,0.37092050050582626,0.7945065195852589,2.395583911803134,0.41148242297322746,0.4260970255100117,0.5553417653427729,3.88713773148445,0.9806978013766419,-1.0740498051057796,1.5464136714473227,0.3254593380369274,undefined,1493659695721
903d185fccf839df,3.9708509145959514,1.0990033231791443,0.0627577986562455,2.026455094359324,4.403439405904006,0.5448289479276822,-0.41509987167220463,3.5371671944738474,7.1717519186467005,7.905715974609852,1.7258413477314674,-0.19066253862868496,7.303197415329769,0.37092050050582626,0.8176643376293862,2.44609907436805,0.42816252295120716,0.42636934212689614,0.5636609741174334,3.905769848778206,0.9876863654893717,-1.086396212574675,1.529682193067909,0.3715850318440061,undefined,1493659696627
903d185fccf839df,3.9930271273674034,1.0309095833970632,0.0499975824256966,2.026455094359324,4.409322827082654,0.5566358621024264,-0.4280174785940145,3.5671211907502904,7.204652058302299,7.862168241624415,1.7760285353892464,-0.20258988763197786,6.859305369875223,0.37092050050582626,0.8039801242323261,2.500655639877088,0.41649691024888635,0.42982079619299823,0.5649483872698057,3.9224925608290437,0.9928346738847672,-1.0943527896487888,1.529954005122252,0.3477388334219579,undefined,1493659697581
903d185fccf839df,3.9930271273674034,1.0309095833970632,0.0499975824256966,2.026455094359324,4.409322827082654,0.5566358621024264,-0.4280174785940145,3.5671211907502904,7.204652058302299,7.862168241624415,1.7760285353892464,-0.20258988763197786,6.859305369875223,0.37092050050582626,0.8039801242323261,2.500655639877088,0.41649691024888635,0.42982079619299823,0.5649483872698057,3.9224925608290437,0.9928346738847672,-1.0943527896487888,1.529954005122252,0.3477388334219579,undefined,1493659697628
903d185fccf839df,3.9930271273674034,1.0203433134308784,0.0499975824256966,2.026455094359324,4.313850989880295,0.5665723971485351,-0.4417398066851024,3.4511777595367246,7.505493028684436,7.22487719549638,1.8223746805604502,-0.21912204379405667,6.450228386809269,0.3755497289661239,0.8039801242323261,2.5733975011046994,0.4095550131689515,0.4399788383166147,0.5647104956388279,3.942726119141675,1.001261680423781,-1.121718349906869,1.562452368632366,0.3083252056317406,undefined,1493659698645
903d185fccf839df,3.9763949677888144,1.0984161912690535,0.00023273912655588433,2.026455094359324,4.178871790363179,0.5900301670860902,-0.45040764728145366,3.479348828782805,7.175649995695689,6.914499171393443,1.817594043563821,-0.23012443806421853,5.74957525623886,0.38203060736806205,0.789243258647768,2.6481599507454856,0.3938644322465146,0.45484859004898437,0.5685237574993293,3.972429719936382,1.0140112575123692,-1.131521060364403,1.6480498156109005,0.2937216351691909,undefined,1493659699636
903d185fccf839df,3.896005644405745,1.0984161912690535,-0.03613387713050849,2.026455094359324,4.138901573668211,0.5961351031698733,-0.4622470337356469,3.4521745063835114,7.205907586806421,6.808130078361221,1.8359360396667255,-0.21623191372659264,5.244756851604278,0.38758555719298354,0.789243258647768,2.646139362332311,0.3859589785648234,0.46231513041762634,0.5718262523799303,3.9878127680545936,1.0207361607568588,-1.1379464230959566,1.649117152769907,0.2790576546160148,undefined,1493659700634
903d185fccf839df,3.896005644405745,1.0984161912690535,-0.03613387713050849,2.026455094359324,4.138901573668211,0.5961351031698733,-0.4622470337356469,3.4521745063835114,7.205907586806421,6.808130078361221,1.8359360396667255,-0.21623191372659264,5.244756851604278,0.38758555719298354,0.789243258647768,2.646139362332311,0.3859589785648234,0.46231513041762634,0.5718262523799303,3.9878127680545936,1.0207361607568588,-1.1379464230959566,1.649117152769907,0.2790576546160148,undefined,1493659700700
903d185fccf839df,3.9708509145959514,1.1160268750366338,-0.037409898753563375,2.045984663313697,4.198291191045025,0.609495619319884,-0.46902667335005693,3.5638826971117217,7.171528158907929,6.849648889004908,1.8544299564829707,-0.20348969718548932,4.826976102941177,0.38758555719298354,0.8039801242323261,2.646139362332311,0.3859589785648234,0.46251145190970205,0.5713084882649493,3.986873462868908,1.0205579308785837,-1.137631634972338,1.6490612366648247,0.28333852897934464,undefined,1493659701647
903d185fccf839df,3.933428555544126,1.1160268750366338,-0.037409898753563375,2.045984663313697,4.257639662600897,0.6083962176226009,-0.47146713358312486,3.601345980798874,7.173344439150332,6.8068711212540585,1.855177956679883,-0.2339796383536363,4.065396613190731,0.392214733850183,0.7829274633185195,2.646139362332311,0.3859589785648234,0.46045324520901304,0.5731696398725065,3.991985746918622,1.0214368048119309,-1.1381667388159087,1.6513375465692819,0.2657707839291023,undefined,1493659702647
903d185fccf839df,4.094206098137153,1.0444108114418857,-0.05336029611022422,2.01035229969456,4.285020186072767,0.5784002735280561,-0.49480929285936165,3.3961517924725335,6.988861484961797,6.635014281400437,1.6323033013131147,-0.2065684632702944,4.256879456327986,0.392214733850183,0.7724011181371486,2.64411866086025,0.37220028494681534,0.4611055383358077,0.5799775364701384,4.002241111397377,1.0262109802780321,-1.1562051871107737,1.6335140508801227,0.22471868739075618,undefined,1493659703608
903d185fccf839df,4.094206098137153,1.0444108114418857,-0.05336029611022422,2.01035229969456,4.285020186072767,0.5784002735280561,-0.49480929285936165,3.3961517924725335,6.988861484961797,6.635014281400437,1.6323033013131147,-0.2065684632702944,4.256879456327986,0.392214733850183,0.7724011181371486,2.64411866086025,0.37220028494681534,0.4611055383358077,0.5799775364701384,4.002241111397377,1.0262109802780321,-1.1562051871107737,1.6335140508801227,0.22471868739075618,undefined,1493659703680
903d185fccf839df,3.933428555544126,0.9663379336037107,-0.07632868532521224,1.9924834761774448,4.193734629639605,0.5527437020515313,-0.5043028922670588,3.138626891729869,6.181457779707292,6.279602862652692,1.5235500520212928,-0.17592803386348121,4.304750167112299,0.38758555719298354,0.7702959315578929,2.6178506723123185,0.36152667604466243,0.46451899492809207,0.5895001962017544,4.012912234428212,1.0328667639973823,-1.1717333499561595,1.6144903282975802,0.19403886286445693,undefined,1493659704605
903d185fccf839df,3.933428555544126,0.9557716636375256,-0.09100293399034348,1.9924834761774448,4.211271744472553,0.5559370891610121,-0.5146564389786508,3.137647759754976,6.132215545443418,6.362406356347511,1.5541841712975406,-0.1579065558788247,3.7607648172905526,0.392214733850183,0.7702959315578929,2.5855210315837485,0.3465692070958694,0.4615551774420992,0.5951886033527372,4.021058012136608,1.0358939848535385,-1.1810880082685273,1.6105851665368196,0.18163961063392675,undefined,1493659705614
903d185fccf839df,3.933428555544126,0.9393352436901268,-0.09100293399034348,1.9483904338581688,4.182564365324523,0.5640940848557431,-0.5160765341584218,3.1531872786566315,6.197595711550608,6.3921472043168786,1.5488361862368483,-0.14514660932372192,3.168908756684492,0.38665978402526147,0.7702959315578929,2.5855210315837485,0.3465692070958694,0.45845203511769045,0.6013457968263402,4.027155797341076,1.0374772817688576,-1.177259114017436,1.6135628574803291,0.17775087054673322,undefined,1493659706611
903d185fccf839df,3.933428555544126,0.9393352436901268,-0.09100293399034348,1.9483904338581688,4.182564365324523,0.5640940848557431,-0.5160765341584218,3.1531872786566315,6.197595711550608,6.3921472043168786,1.5488361862368483,-0.14514660932372192,3.168908756684492,0.38665978402526147,0.7702959315578929,2.5855210315837485,0.3465692070958694,0.45845203511769045,0.6013457968263402,4.027155797341076,1.0374772817688576,-1.177259114017436,1.6135628574803291,0.17775087054673322,undefined,1493659706666
903d185fccf839df,3.9930271273674034,0.9205507637502425,-0.10631519346700216,1.9483904338581688,4.1546181259928785,0.5706788446795861,-0.5201027674513509,3.1763005528722688,6.172672003648779,6.407263339938897,1.5579845819844016,-0.15080211912409805,1.8285288547237077,0.38017890562332335,0.7860855082278195,2.5855210315837485,0.3465692070958694,0.45334768270195924,0.608146697169748,4.023952920472852,1.0365643118908707,-1.164879998882802,1.6121655905768508,0.174198128229711,undefined,1493659707645
903d185fccf839df,3.9930271273674034,0.9193769675779384,-0.11460933401685895,1.8773978591327556,4.144157572546872,0.549971906830494,-0.5239370246986131,3.0163420300021895,6.377601082015273,6.456502580458633,1.5544005827581935,-0.11216990528310192,1.288895387700535,0.38017890562332335,0.7860855082278195,2.5249029269529584,0.3339621795038812,0.4470654020424664,0.6092731836536054,4.009770952472606,1.0313019309125562,-1.1500964755100964,1.5800746676534636,0.19149024488617722,undefined,1493659708652
903d185fccf839df,3.890461591212882,0.9381614475178227,-0.1082292259015845,1.8773978591327556,4.13282273314215,0.5453716587459703,-0.5280447817843426,2.9746145246642204,6.366319148563848,6.447167775009055,1.5655017373180222,-0.09211888000962602,1.1757464349376114,0.38017890562332335,0.7860855082278195,2.4380167207153507,0.32727363739494947,0.4385982562738168,0.6150595465850558,3.991292819875635,1.0255409809401215,-1.122437608616037,1.5268052793329372,0.20337137384100493,undefined,1493659709587
903d185fccf839df,3.890461591212882,0.9381614475178227,-0.1082292259015845,1.8773978591327556,4.13282273314215,0.5453716587459703,-0.5280447817843426,2.9746145246642204,6.366319148563848,6.447167775009055,1.5655017373180222,-0.09211888000962602,1.1757464349376114,0.38017890562332335,0.7860855082278195,2.4380167207153507,0.32727363739494947,0.4385982562738168,0.6150595465850558,3.991292819875635,1.0255409809401215,-1.122437608616037,1.5268052793329372,0.20337137384100493,undefined,1493659709651
903d185fccf839df,3.9930271273674034,0.9205507637502425,-0.10631519346700216,1.9924834761774448,4.161427255419821,0.5538733829014015,-0.5162159142166534,3.071544332567214,6.390711601204169,6.507719782868792,1.5680163416017134,-0.08125851429483222,0.3488887032085562,0.37554967716302573,0.7808223650860693,2.4380167207153507,0.32727363739494947,0.4255017285496503,0.6186139265838125,4.004335301808946,1.0242688083553146,-1.091109034716785,1.461748725825217,0.21454394632268575,undefined,1493659710625
903d185fccf839df,3.9930271273674034,0.9545978674652216,-0.09802105291714537,1.9662592573752837,4.156808977843652,0.5815237821372582,-0.5086262938260382,3.2809789437067396,6.1581909934208445,6.444946422632711,1.5954896500813756,-0.0817171809936623,0.16175774286987524,0.37092055230892446,0.7702960493536335,2.4380167207153507,0.32727363739494947,0.41550834314989243,0.6253168718318637,4.024846030335661,1.025996386541808,-1.0584894293822626,1.4223988706673483,0.2567087441810389,undefined,1493659711614
903d185fccf839df,4.15380466996043,0.9898187673525048,-0.08334680425201414,1.9662592573752837,4.194248919624865,0.5714661267696074,-0.500171467834003,3.3020457463417823,6.017472413501522,6.525725461064756,1.5436812292215738,-0.06368437631139444,0.16175774286987524,0.3449972459135647,0.7702960493536335,2.4157897959348826,0.33244565145255356,0.40757949737789106,0.625701696644178,3.9974983907922623,1.0180708034368673,-1.0422756198071035,1.377783861300798,0.294084653144216,undefined,1493659712597
903d185fccf839df,4.15380466996043,0.9898187673525048,-0.08334680425201414,1.9662592573752837,4.194248919624865,0.5714661267696074,-0.500171467834003,3.3020457463417823,6.017472413501522,6.525725461064756,1.5436812292215738,-0.06368437631139444,0.16175774286987524,0.3449972459135647,0.7702960493536335,2.4157897959348826,0.33244565145255356,0.40757949737789106,0.625701696644178,3.9974983907922623,1.0180708034368673,-1.0422756198071035,1.377783861300798,0.294084653144216,undefined,1493659712647
903d185fccf839df,4.15380466996043,1.033844541475701,-0.060378415037026116,2.001891620994421,4.21110717501638,0.5917398265454925,-0.4921058527545875,3.464206375224514,6.066503139250297,6.5543019341683815,1.6050212515503592,-0.050792380426744305,0.16175774286987524,0.31907386181355757,0.7860855082278195,2.365274633369967,0.31576555147457386,0.396066206093519,0.6346086371654559,3.9841787351985163,1.0154310775026205,-1.0468292093394929,1.3717307843829933,0.29154812022317744,undefined,1493659713683
903d185fccf839df,4.15380466996043,1.033844541475701,-0.06548250152924567,1.952195723098376,4.229395142954414,0.5911808087490399,-0.49076991115471286,3.475362093902404,6.040941656983975,6.525941125816248,1.6032298971841519,-0.0335696716689437,0.02684937611408201,0.3079638585575182,0.7860855082278195,2.365274633369967,0.31576555147457386,0.38932162109370666,0.6345386689465818,3.980975858330291,1.0121520875229586,-1.028367915623063,1.3649231394133665,0.29781982949879965,undefined,1493659714627
903d185fccf839df,4.164892500302878,1.1054606050704487,-0.05208414741869462,1.9753533756420623,4.4953626892731275,0.6242629931976441,-0.46953159736640243,3.978899433161311,8.522344794292657,7.937393460276818,1.8316246933782319,-0.013350630572686465,0.02684937611408201,0.30333473370341696,0.7924012446591977,2.4157897959348826,0.33244565145255356,0.38628814118850585,0.6494488732122827,3.988228525314292,1.0182075661248673,-1.0233799677419055,1.3610771489036866,0.36568097139603567,undefined,1493659715593
903d185fccf839df,4.164892500302878,1.1054606050704487,-0.05208414741869462,1.9753533756420623,4.4953626892731275,0.6242629931976441,-0.46953159736640243,3.978899433161311,8.522344794292657,7.937393460276818,1.8316246933782319,-0.013350630572686465,0.02684937611408201,0.30333473370341696,0.7924012446591977,2.4157897959348826,0.33244565145255356,0.38628814118850585,0.6494488732122827,3.988228525314292,1.0182075661248673,-1.0233799677419055,1.3610771489036866,0.36568097139603567,undefined,1493659715649
903d185fccf839df,4.224491072126156,1.1160268750366338,-0.05080812579563972,2.0250492735381074,4.483523852740047,0.6130989498135496,-0.4653133884206271,3.913257977646438,8.677844239221416,7.884082070720691,1.814093593135839,-0.012106745366141394,0.02684937611408201,0.30333473370341696,0.7924012446591977,2.4157897959348826,0.33373680730830324,0.39326071173991767,0.6475107564465167,3.9774034180174667,1.0195430488279718,-1.0242495493769679,1.3416626095539081,0.3588443333869025,undefined,1493659716635
903d185fccf839df,4.249439311494039,1.1218970250178477,0.023839107385952674,2.069142315857383,4.465421026656526,0.6004069253648195,-0.45819450337376555,3.846914522487326,8.87376267622146,7.804351983317402,1.7866121563357684,-0.008466323736113503,-0.051484514260249546,0.30333473370341696,0.7924012446591977,2.3915426219178983,0.31576555147457386,0.39111384392740517,0.6476366986141028,3.955337446164119,1.0166099005900637,-1.030601030111539,1.3403744088712413,0.3111630948917243,undefined,1493659717611
903d185fccf839df,4.27854572877821,1.1700322548638014,0.016182977647623335,2.1024621337726366,4.4424222068862,0.5921730643867498,-0.4543996934403384,3.782274349128261,8.990609500613783,7.7963589497859,1.78148402759117,0.02081591014694497,-0.051484514260249546,0.313518886087087,0.7924012446591977,2.3571923927761538,0.30644504148413665,0.38659845492486133,0.6472798615591279,3.9470838795126078,1.0144840403629845,-1.0486241792117084,1.340663397860639,0.28663772288376,undefined,1493659718602
903d185fccf839df,4.27854572877821,1.1700322548638014,0.016182977647623335,2.1024621337726366,4.4424222068862,0.5921730643867498,-0.4543996934403384,3.782274349128261,8.990609500613783,7.7963589497859,1.78148402759117,0.02081591014694497,-0.051484514260249546,0.313518886087087,0.7924012446591977,2.3571923927761538,0.30644504148413665,0.38659845492486133,0.6472798615591279,3.9470838795126078,1.0144840403629845,-1.0486241792117084,1.340663397860639,0.28663772288376,undefined,1493659718662
903d185fccf839df,4.291019848462151,1.1805985248299864,0.016182977647623335,2.1345745607377804,4.393740002517053,0.57829312886018,-0.45181196421330627,3.6635961333955547,9.2053697668465,7.8166025416668825,1.7844276531307297,0.001037147472731353,0.02684937611408201,0.3292580660003258,0.7924012446591977,2.3571923927761538,0.30644504148413665,0.38246937549217525,0.6517858082775413,3.950733310450649,1.0168324603628998,-1.0779467004396441,1.3241008201748379,0.31759484491913254,undefined,1493659719627
903d185fccf839df,4.291019848462151,1.1805985248299864,0.023839107385952674,2.149602926507823,4.3532966421699015,0.5746897951192214,-0.45348978049260036,3.606284835523516,9.258815178510613,7.885171861539673,1.7944865039057496,0.010793072433605853,-0.051484514260249546,0.313518886087087,0.7924012446591977,2.3571923927761538,0.30644504148413665,0.38492022451261587,0.6504844014422453,3.95455212265966,1.0173793622905498,-1.0679090104864786,1.3329207388783206,0.31915640009355356,undefined,1493659720606
903d185fccf839df,4.291019848462151,1.306806866338054,0.023839107385952674,2.156304063441231,4.347279509108322,0.5857862910955858,-0.45218276686176606,3.674978294971148,9.270630007109444,7.8885523812513,1.7908570720903938,0.012345984949119999,0.02684937611408201,0.3181480109411883,0.7966118239602553,2.3571923927761538,0.30644504148413665,0.39538224678112094,0.6406538821543966,3.945882798533054,1.0174072020404659,-1.094453273208618,1.3795866027639454,0.2581195689282292,undefined,1493659721595
903d185fccf839df,4.291019848462151,1.306806866338054,0.023839107385952674,2.156304063441231,4.347279509108322,0.5857862910955858,-0.45218276686176606,3.674978294971148,9.270630007109444,7.8885523812513,1.7908570720903938,0.012345984949119999,0.02684937611408201,0.3181480109411883,0.7966118239602553,2.3571923927761538,0.30644504148413665,0.39538224678112094,0.6406538821543966,3.945882798533054,1.0174072020404659,-1.094453273208618,1.3795866027639454,0.2581195689282292,undefined,1493659721638
903d185fccf839df,4.059555903703398,1.3156122082218442,0.028943193878172235,2.1699893482954615,4.333918387309,0.5962515633938629,-0.44334924872085885,3.7415694195098825,9.290869483587482,7.932965101812018,1.8081664798079657,0.006867284230007491,0.031201258912655985,0.3181480109411883,0.8018749671020056,2.3571923927761538,0.30644504148413665,0.40034727435843626,0.6384358931003732,3.946206166223984,1.0191211437404935,-1.1098421140537549,1.4138888154452383,0.23945876516690381,undefined,1493659722644
903d185fccf839df,4.016588939372154,1.348485048116642,0.022563085762897787,2.185991663080947,4.281965332926049,0.6128636961854755,-0.4423762205227283,3.832836771034005,9.101837089671898,8.01494247815498,1.7774290650100222,-0.00032733788526671874,0.031201258912655985,0.3181480109411883,0.8018749671020056,2.3571923927761538,0.30644504148413665,0.4077631516648855,0.6404999524252168,3.9491472685907225,1.0229975554878088,-1.1066833166532497,1.4683284328537103,0.2542519906807073,undefined,1493659723596
903d185fccf839df,4.016588939372154,1.348485048116642,0.015544966836095889,2.185991663080947,4.2734179167565784,0.6153093977692322,-0.44126907221701156,3.8394662230463257,9.11827123368935,8.035002315455516,1.7735341573451675,0.013319326556726118,0.031201258912655985,0.3181480109411883,0.8018749671020056,2.2945536997321887,0.3048824971143837,0.4093273893013313,0.6417313914331312,3.9369363033307763,1.0214755662202366,-1.1048788660318896,1.459934921791261,0.260833433333888,undefined,1493659724610
903d185fccf839df,4.016588939372154,1.348485048116642,0.015544966836095889,2.185991663080947,4.2734179167565784,0.6153093977692322,-0.44126907221701156,3.8394662230463257,9.11827123368935,8.035002315455516,1.7735341573451675,0.013319326556726118,0.031201258912655985,0.3181480109411883,0.8018749671020056,2.2945536997321887,0.3048824971143837,0.4093273893013313,0.6417313914331312,3.9369363033307763,1.0214755662202366,-1.1048788660318896,1.459934921791261,0.260833433333888,undefined,1493659724660
903d185fccf839df,4.016588939372154,1.4541477477784917,0.015544966836095889,2.272169059745671,4.284279610460584,0.6205921108892081,-0.44028026513262897,3.882890887610884,9.18603529631623,8.026239656226807,1.7629022522318198,0.0185108226055767,0.031201258912655985,0.3338871908544271,0.8081907624312541,2.2723271141283794,0.3136342987793726,0.4041787059089016,0.6359450285016806,3.907186508397877,1.0121731733549908,-1.0898361300687056,1.4863229130951034,0.2952298644627196,undefined,1493659725624
903d185fccf839df,4.016588939372154,1.4541477477784917,0.00788880533064787,2.272169059745671,4.2843721795953735,0.617671244967095,-0.4397674529334571,3.865936689987105,9.157052814713728,8.031503775579925,1.7684307938367645,0.01782485916368653,0.031201258912655985,0.34221969329645663,0.8081907624312541,2.2682859373020294,0.3122888896136576,0.40043593609036626,0.6315650247338371,3.883503698736072,1.0051096526073093,-1.0806695957520898,1.5112120024652944,0.2999536362104878,undefined,1493659726641
903d185fccf839df,3.979166856363607,1.4541477477784917,0.012354881011339986,2.272169059745671,4.257691082841942,0.6177807195677719,-0.4292587482103307,3.860413013478155,9.172148127932752,8.073086578864686,1.7607962537871125,0.022726816970082112,-0.08629957664884134,0.34221969329645663,0.8145064988626323,2.2238325399766383,0.30639084920925774,0.4018165176459377,0.6316279954261382,3.8667655892494603,1.0025784477948572,-1.0781127346866706,1.5223821984069312,0.27703173134707504,undefined,1493659727600
903d185fccf839df,3.979166856363607,1.4541477477784917,0.012354881011339986,2.272169059745671,4.257691082841942,0.6177807195677719,-0.4292587482103307,3.860413013478155,9.172148127932752,8.073086578864686,1.7607962537871125,0.022726816970082112,-0.08629957664884134,0.34221969329645663,0.8145064988626323,2.2238325399766383,0.30639084920925774,0.4018165176459377,0.6316279954261382,3.8667655892494603,1.0025784477948572,-1.0781127346866706,1.5223821984069312,0.27703173134707504,undefined,1493659727645
903d185fccf839df,3.979166856363607,1.5228286194706633,0.012354881011339986,2.272169059745671,4.275691053591505,0.6105787124153563,-0.42851714258606083,3.8307080461458334,9.157934512754432,8.064570815581426,1.7642411160356508,0.036551851096282596,-0.19509664661319073,0.35055219573848617,0.793453926295631,2.2238325399766383,0.30639084920925774,0.3996886486589208,0.6288082811383191,3.8640400647689503,1.0006760389739902,-1.0763484128903238,1.5233726388123228,0.26882575415001037,undefined,1493659728620
903d185fccf839df,4.202315273419621,1.4171659198088136,0.012354881011339986,2.185991663080947,4.262535646813234,0.5875425357579418,-0.4285118829791335,3.6559808686924837,9.379942916265543,8.075346816577076,1.7885185560092312,0.013928882952781867,-0.321301247771836,0.35055219573848617,0.7766117268871413,2.2238325399766383,0.30639084920925774,0.40372906649255674,0.6254987893183834,3.8614993198567706,0.9997537532837094,-1.0652688564143262,1.525502710762612,0.26329599786851154,undefined,1493659729631
903d185fccf839df,4.202315273419621,1.3842930799140158,0.05127366758298885,2.1699893482954615,4.280515045164458,0.5614014829952501,-0.4239596887315948,3.4769269459412606,9.602777942497427,8.036024696204313,1.827674502522922,0.042266246603376564,-0.3430606617647059,0.353329696552496,0.7724011181371486,2.2682859373020294,0.3278208277192376,0.4119808922979819,0.616151049840333,3.871924067114273,1.0001864706050063,-1.0528424492021358,1.5327918892688492,0.2676518144774381,undefined,1493659730610
903d185fccf839df,4.202315273419621,1.3842930799140158,0.05127366758298885,2.1699893482954615,4.280515045164458,0.5614014829952501,-0.4239596887315948,3.4769269459412606,9.602777942497427,8.036024696204313,1.827674502522922,0.042266246603376564,-0.3430606617647059,0.353329696552496,0.7724011181371486,2.2682859373020294,0.3278208277192376,0.4119808922979819,0.616151049840333,3.871924067114273,1.0001864706050063,-1.0528424492021358,1.5327918892688492,0.2676518144774381,undefined,1493659730666
903d185fccf839df,4.202315273419621,1.3754877380302257,0.020011042516788004,2.156304063441231,4.273777911961833,0.5483181474343105,-0.4323198423226996,3.373060671272892,9.622721520965243,8.054705742749116,1.8246262454712947,0.052563269731329416,-0.2647267713903743,0.3449971941104665,0.7492433000930213,2.2662653488888544,0.3278208277192376,0.4184784927878193,0.6065304354048522,3.873910466428759,0.9969340310865643,-1.0254918257569787,1.5157531019365205,0.2993821088772805,undefined,1493659731634
903d185fccf839df,4.202315273419621,1.3842930799140158,0.058929829088436865,2.1699893482954615,4.2754030505135,0.5607772502753136,-0.4295401374428213,3.4626443074930795,9.656064483776861,8.06197163916805,1.8384865406003112,0.05940708878496333,-0.3822276069518717,0.3755497289661239,0.7492433000930213,2.270306412656318,0.33087734400429764,0.42567904995387057,0.6021714226507594,3.925264281332471,1.0068992413873676,-1.0246484940110283,1.5548976606900233,0.30203935042106245,undefined,1493659732625
903d185fccf839df,3.979166856363607,1.3156122082218442,0.06977598111728475,2.154960982525419,4.2923024496774245,0.566849577041758,-0.41803210609410724,3.541762153778749,9.56628434702178,7.977527967741938,1.7994477881040933,0.05047601500304821,-0.39528325534759357,0.3755497289661239,0.7429275047637729,2.244038424108387,0.3171186503862896,0.4293521573974913,0.6077618742170203,3.9439733926977945,1.0129535581940254,-1.0274905166405612,1.5465686440879647,0.27989908293170385,undefined,1493659733619
903d185fccf839df,3.979166856363607,1.3156122082218442,0.06977598111728475,2.154960982525419,4.2923024496774245,0.566849577041758,-0.41803210609410724,3.541762153778749,9.56628434702178,7.977527967741938,1.7994477881040933,0.05047601500304821,-0.39528325534759357,0.3755497289661239,0.7429275047637729,2.244038424108387,0.3171186503862896,0.4293521573974913,0.6077618742170203,3.9439733926977945,1.0129535581940254,-1.0274905166405612,1.5465686440879647,0.27989908293170385,undefined,1493659733671
903d185fccf839df,3.944516247864935,1.3050459382556592,0.07488006760950432,2.1388508703457605,4.370247462855206,0.5822272142484262,-0.40903816986826386,3.7203579707484162,9.457087700243708,8.053552722218514,1.7997576903261794,0.028989596796439563,-0.4649133801247772,0.3755497289661239,0.7429275047637729,2.211708783379817,0.30644504148413665,0.4305427506981076,0.6116451041006494,3.9507487081556687,1.01583073144854,-1.0311252879117077,1.5387345823323348,0.26252133366598834,undefined,1493659734630
903d185fccf839df,3.890461591212882,1.2569107084097055,0.07488006760950432,2.1055310524305075,4.391878284201228,0.5895550011240873,-0.4096535444025178,3.7833086077132165,9.368857524100413,8.03471513268554,1.790779971516589,0.03160696109729109,-0.5475991532976827,0.3755497289661239,0.7492433000930213,2.2036264297271173,0.30644504148413665,0.43121404265039787,0.6083426094157944,3.9591408607758094,1.0162498488299625,-1.02849572149923,1.5311556830051878,0.26583974186874104,undefined,1493659735645
903d185fccf839df,3.9930271273674034,1.2839133983232893,0.15016534336974285,2.147615406775955,4.483791273689179,0.6176223323827846,-0.39574713059273575,4.064022768102883,9.542482925622837,8.27079119124374,1.8410527417441873,0.0521494091928887,-0.504080325311943,0.3838822314081535,0.7492433000930213,2.2016057282550565,0.2936853716087938,0.42861120282667314,0.6115121646022368,3.977095447816159,1.0205580499409677,-1.0330040476681912,1.5105975918326007,0.24838196335388202,undefined,1493659736602
903d185fccf839df,3.9930271273674034,1.2839133983232893,0.15016534336974285,2.147615406775955,4.483791273689179,0.6176223323827846,-0.39574713059273575,4.064022768102883,9.542482925622837,8.27079119124374,1.8410527417441873,0.0521494091928887,-0.504080325311943,0.3838822314081535,0.7492433000930213,2.2016057282550565,0.2936853716087938,0.42861120282667314,0.6115121646022368,3.977095447816159,1.0205580499409677,-1.0330040476681912,1.5105975918326007,0.24838196335388202,undefined,1493659736665
903d185fccf839df,3.944516247864935,1.2569107084097055,0.15016534336974285,2.1055310524305075,4.365927474300143,0.6016367638675565,-0.4168828814567331,3.801477732725568,9.510210519608673,7.393267412354849,1.7549974367719101,0.008981259502679861,-0.5214878565062389,0.40980553780351325,0.7492433000930213,2.177358441179186,0.29192588211278137,0.4445828871464756,0.6151994840994062,3.981822770770104,1.0306128552683393,-1.0353633807687599,1.472344598100798,0.23313065994769908,undefined,1493659737640
903d185fccf839df,4.016588939372154,1.2569107084097055,0.07488006760950432,2.1388508703457605,4.362173194434986,0.593475109582945,-0.42968477702614255,3.701996206391946,9.608870340096965,7.524353904827704,1.8214339206838275,0.01787583981331231,-0.5954698640819964,0.41443466265761447,0.7597696452743923,2.177358441179186,0.28590458501652255,0.45261939227998266,0.6096020352267869,3.9811760358190385,1.0342344440108908,-1.061158882233985,1.441052498146486,0.25986876650935165,undefined,1493659738629
903d185fccf839df,4.239737356428169,1.296240596371869,0.07488006760950432,2.154960982525419,4.336757237186964,0.5642501438475508,-0.4292166714858527,3.4909595763104764,9.78165150560513,7.5219795337928055,1.8225100976661353,-0.0005781787027256535,-0.6825075200534759,0.41443466265761447,0.7829274633185195,2.177358441179186,0.28590458501652255,0.44988356105428257,0.6179282407450365,3.98096045793281,1.037214893168182,-1.0677209719446827,1.4492984816582342,0.22926719265678183,undefined,1493659739604
903d185fccf839df,4.239737356428169,1.296240596371869,0.07488006760950432,2.154960982525419,4.336757237186964,0.5642501438475508,-0.4292166714858527,3.4909595763104764,9.78165150560513,7.5219795337928055,1.8225100976661353,-0.0005781787027256535,-0.6825075200534759,0.41443466265761447,0.7829274633185195,2.177358441179186,0.28590458501652255,0.44988356105428257,0.6179282407450365,3.98096045793281,1.037214893168182,-1.0677209719446827,1.4492984816582342,0.22926719265678183,undefined,1493659739659
903d185fccf839df,4.202315273419621,1.306806866338054,0.13485308389308415,2.156304063441231,4.268336783519862,0.5518585907337732,-0.42869334007282617,3.354818680410437,9.868007975741467,7.502465135087698,1.8164149012012385,-0.0032412842942061925,-0.6825075200534759,0.422767165099644,0.7871380720685123,2.177358441179186,0.2940903859590637,0.44570381811647053,0.6298018293227077,3.9888906586165667,1.0431519850683904,-1.0969622282882054,1.4409140277605001,0.24785602965918183,undefined,1493659740635
903d185fccf839df,4.249439725558957,1.306806866338054,0.13485308389308415,2.156304063441231,4.240750544770874,0.5488981277834638,-0.42921404168238897,3.3147986310197792,9.990411854863122,7.538579457431614,1.8232300945146547,-0.010193779947404424,-0.6825075200534759,0.422767165099644,0.7871380720685123,2.2016057282550565,0.30829195377273383,0.4418533880062697,0.6358540712509837,4.005012832762391,1.0477824656353947,-1.120584905613604,1.4263745088457958,0.31915998643720866,undefined,1493659741626
903d185fccf839df,4.202315273419621,1.306806866338054,0.15016534336974285,2.156304063441231,4.266793929440216,0.5481620870508062,-0.42596623126222094,3.3193468070675656,10.09105580649122,7.5092563628692135,1.8392124790337705,-0.009174784667517824,-0.6825075200534759,0.422767165099644,0.7829274633185195,2.264244421299021,0.30829195377273383,0.4408844477288254,0.6300817021982034,4.021550763521724,1.048322692331342,-1.1245632237560408,1.4308178169016659,0.3252003170016563,undefined,1493659742588
903d185fccf839df,4.202315273419621,1.306806866338054,0.15016534336974285,2.156304063441231,4.266793929440216,0.5481620870508062,-0.42596623126222094,3.3193468070675656,10.09105580649122,7.5092563628692135,1.8392124790337705,-0.009174784667517824,-0.6825075200534759,0.422767165099644,0.7829274633185195,2.264244421299021,0.30829195377273383,0.4408844477288254,0.6300817021982034,4.021550763521724,1.048322692331342,-1.1245632237560408,1.4308178169016659,0.3252003170016563,undefined,1493659742639
903d185fccf839df,4.164892638324518,1.3156122082218442,0.1750478920877879,2.1699893482954615,4.253947096089755,0.5601576694187215,-0.41870270702485873,3.3976188402903253,10.117681972746475,7.538516406462322,1.864199177322906,0.0072259776249470565,-0.691211285650624,0.4273963935599417,0.7808223061881989,2.3612335696025033,0.3234747949171048,0.44798367735310507,0.6208529089271339,4.0452797663524365,1.0528889125580811,-1.1501238163052476,1.4839098929631573,0.3106406461938895,undefined,1493659743622
903d185fccf839df,4.212017090463854,1.348485048116642,0.16994380559556835,2.185991663080947,4.224602002553032,0.5715476501789277,-0.41668827560760263,3.4731097198531082,9.985624025349432,7.55901563433507,1.8474733543778599,-0.00857442283595411,-0.7173225824420678,0.4338772719618798,0.7808223061881989,2.438016833774237,0.33608182250909296,0.4576730815449347,0.6166198383406271,4.069593910513977,1.0601358475590261,-1.1591139155206256,1.5574030839385147,0.304528636166008,undefined,1493659744623
903d185fccf839df,4.249439725558957,1.337918778150457,0.16994380559556835,2.182764137864725,4.271000781839551,0.5802939428226982,-0.41544437699801545,3.569912572898812,9.97424424564157,7.57003939036513,1.848551413135314,-0.008885789601051434,-0.7042669340463459,0.4338772719618798,0.7808223061881989,2.438016833774237,0.33608182250909296,0.4578757359197846,0.6121978539155035,4.067515119692151,1.0586481576967244,-1.1602957925226534,1.5570526741164017,0.3071796241833423,undefined,1493659745594
903d185fccf839df,4.249439725558957,1.337918778150457,0.16994380559556835,2.182764137864725,4.271000781839551,0.5802939428226982,-0.41544437699801545,3.569912572898812,9.97424424564157,7.57003939036513,1.848551413135314,-0.008885789601051434,-0.7042669340463459,0.4338772719618798,0.7808223061881989,2.438016833774237,0.33608182250909296,0.4578757359197846,0.6121978539155035,4.067515119692151,1.0586481576967244,-1.1602957925226534,1.5570526741164017,0.3071796241833423,undefined,1493659745644
903d185fccf839df,4.286861808567504,1.337918778150457,0.16994380559556835,2.16337425165002,4.332056675394842,0.5886698863270863,-0.4151419493378156,3.6762347536558098,9.986693675008654,7.501176491332107,1.8363161975670028,-0.0048050975197143995,-0.691211285650624,0.4440614502470989,0.7808223061881989,2.4622641208501075,0.34210311960535184,0.4531513599253768,0.6090492891555742,4.04717377351339,1.0526969844893965,-1.1517266776171413,1.5835569979643536,0.32790659244276155,undefined,1493659746630
903d185fccf839df,4.389427344722026,1.337918778150457,0.16994380559556835,2.16337425165002,4.383958304415414,0.5879385049961326,-0.41415314228616806,3.717046502024227,9.924682628570876,7.404077147462773,1.836451389789757,-0.013910793653971824,-0.691211285650624,0.4440614502470989,0.7808223061881989,2.4642848223221683,0.34210311960535184,0.449997554184429,0.6115681407286226,4.032052499896665,1.0503713589617176,-1.1564038858373318,1.5951751478818477,0.31946374160736596,undefined,1493659747621
903d185fccf839df,4.389427344722026,1.337918778150457,0.14952745962669012,2.16337425165002,4.392145719490095,0.5859772865541388,-0.41019791381769777,3.7151409740077885,9.919435812425842,7.401813938508264,1.8368859175826264,-0.018033789231754385,-0.6041736296791445,0.4440614502470989,0.7808223061881989,2.3875015581504346,0.34210311960535184,0.4489716172533249,0.6129675027571485,4.02036508019334,1.048170245031341,-1.157714408411889,1.599460999694816,0.31977708830074725,undefined,1493659748600
903d185fccf839df,4.389427344722026,1.337918778150457,0.14952745962669012,2.16337425165002,4.392145719490095,0.5859772865541388,-0.41019791381769777,3.7151409740077885,9.919435812425842,7.401813938508264,1.8368859175826264,-0.018033789231754385,-0.6041736296791445,0.4440614502470989,0.7808223061881989,2.3875015581504346,0.34210311960535184,0.4489716172533249,0.6129675027571485,4.02036508019334,1.048170245031341,-1.157714408411889,1.599460999694816,0.31977708830074725,undefined,1493659748681
903d185fccf839df,4.389427344722026,1.337918778150457,0.14825143800363522,2.195486678615164,4.368138903414521,0.5833335993655012,-0.4085253573744765,3.6768714619612757,9.952196607567101,7.4350424341301595,1.8383104088530635,-0.01544896853387397,-0.5214878565062389,0.45146812771830824,0.7808223061881989,2.3875015581504346,0.34210311960535184,0.44443089663109825,0.6149475999844487,4.017208398217198,1.0472462214202598,-1.1608950952460086,1.5950634645034207,0.32298812344096056,undefined,1493659749631
903d185fccf839df,4.442095850054224,1.337918778150457,0.13102511432527553,2.195486678615164,4.323673836363546,0.5817217655386188,-0.40425455219575296,3.6432138312004247,9.974595941498453,7.465642608044385,1.8388044452224872,0.0033548093624643917,-0.504080325311943,0.45702307754322974,0.7808223061881989,2.3875015581504346,0.34210311960535184,0.44626745035290843,0.616053096041793,4.011587966262033,1.0473946770864424,-1.1595240335183532,1.5919400278484241,0.3220030604515076,undefined,1493659750628
903d185fccf839df,4.302108230891155,1.337918778150457,0.12336898458694619,2.195486678615164,4.267092216668856,0.5799934707918978,-0.39992063189757737,3.581090133294727,9.980281623581082,7.541614452265021,1.8392205095538534,0.0014596504352481405,-0.504080325311943,0.4653556058868084,0.7808223061881989,2.3875015581504346,0.34210311960535184,0.4484269839309692,0.6127715919791967,4.012681255713709,1.0477801927933812,-1.1652633821614529,1.594581808016891,0.3178482671590484,undefined,1493659751598
903d185fccf839df,4.302108230891155,1.337918778150457,0.12336898458694619,2.195486678615164,4.267092216668856,0.5799934707918978,-0.39992063189757737,3.581090133294727,9.980281623581082,7.541614452265021,1.8392205095538534,0.0014596504352481405,-0.504080325311943,0.4653556058868084,0.7808223061881989,2.3875015581504346,0.34210311960535184,0.4484269839309692,0.6127715919791967,4.012681255713709,1.0477801927933812,-1.1652633821614529,1.594581808016891,0.3178482671590484,undefined,1493659751655
903d185fccf839df,4.442095850054224,1.337918778150457,0.12336898458694619,2.195486678615164,4.29370131566157,0.5787752794017227,-0.39998111737724124,3.5946049318024684,10.010413574624131,7.544210979164792,1.838944285657511,0.02407131994039568,-0.47361714572192515,0.48202066257396564,0.7818749289267619,2.4642848223221683,0.3660480029839597,0.4508651671858618,0.6088253908160286,4.028356872343365,1.0513111868851792,-1.1738720934432312,1.6174823917464596,0.28889742775463134,undefined,1493659752606
903d185fccf839df,4.673559794812976,1.3156122082218442,0.17249581707455947,2.182764137864725,4.325319548337818,0.5573765586415701,-0.39827700263775495,3.4977152882463782,9.98679755843876,7.559827010686803,1.8256464848667993,0.04967818806104093,-0.5127840909090909,0.48202066257396564,0.7818749289267619,2.4723671759748678,0.3660480029839597,0.4492439336044494,0.6108894501408727,4.011356988786061,1.0487697319402316,-1.171673301178977,1.6125181518090068,0.29099396029920577,undefined,1493659752979
903d185fccf839df,4.769194988433141,1.348485048116642,0.17249581707455947,2.195486678615164,4.4205651034981885,0.5601809636438446,-0.3949976345760232,3.598308442753782,10.167700686689415,7.53070829309261,1.8311589257195338,0.048023826969421035,-0.49102467691622104,0.48202066257396564,0.7913485335738292,2.4723671759748678,0.3860206478237266,0.4456278228144885,0.6254288225920721,4.00224110972805,1.0512247347977093,-1.1736465739407007,1.611261597391673,0.285962349945613,undefined,1493659753914
903d185fccf839df,4.769194988433141,1.348485048116642,0.17249581707455947,2.195486678615164,4.4205651034981885,0.5601809636438446,-0.3949976345760232,3.598308442753782,10.167700686689415,7.53070829309261,1.8311589257195338,0.048023826969421035,-0.49102467691622104,0.48202066257396564,0.7913485335738292,2.4723671759748678,0.3860206478237266,0.4456278228144885,0.6254288225920721,4.00224110972805,1.0512247347977093,-1.1736465739407007,1.611261597391673,0.285962349945613,undefined,1493659753982
903d185fccf839df,4.716526483100943,1.348485048116642,0.1744098177420231,2.16337425165002,4.435901077720529,0.5638774663990136,-0.3761366648047039,3.708634669690687,10.062838470156434,7.340234732827134,1.7281443064108115,0.06992374223819563,-0.49102467691622104,0.49498234167319466,0.7913485335738292,2.504696816703438,0.3926845343876943,0.43998516987058894,0.6285004227810308,3.9900301418833415,1.047857283093603,-1.1684310488097294,1.619452643243138,0.2948039401994519,undefined,1493659754993
903d185fccf839df,4.848198022474717,1.4435814778123066,0.2152425096797796,2.1917084490952314,4.655120132417773,0.5979332737494537,-0.3544723218732311,4.181650635960984,11.691001470570408,8.66866239504919,1.9245671505382758,0.07482776647459989,-0.321301247771836,0.5107215215864335,0.7829274633185195,2.504696816703438,0.3926845343876943,0.4336332273234083,0.6353782877688143,3.9845636929017836,1.0463724006082795,-1.1635790038753016,1.6215583607213864,0.3020156388844076,undefined,1493659755942
903d185fccf839df,4.900866527806916,1.4435814778123066,0.2152425096797796,2.1917084490952314,4.618688193343474,0.5934820977577023,-0.35551898463381393,4.119983698244531,11.89476275401276,8.744303972732885,1.9411957903925525,0.05395804496224473,-0.27778241978609625,0.5486806562086529,0.7829274633185195,2.504696816703438,0.3926845343876943,0.4375089891418787,0.6349374886652326,3.9763409237065828,1.0472639464896316,-1.1774595128817145,1.6072166395978635,0.32218430352381666,undefined,1493659756922
903d185fccf839df,4.900866527806916,1.4435814778123066,0.2152425096797796,2.1917084490952314,4.618688193343474,0.5934820977577023,-0.35551898463381393,4.119983698244531,11.89476275401276,8.744303972732885,1.9411957903925525,0.05395804496224473,-0.27778241978609625,0.5486806562086529,0.7829274633185195,2.504696816703438,0.3926845343876943,0.4375089891418787,0.6349374886652326,3.9763409237065828,1.0472639464896316,-1.1774595128817145,1.6072166395978635,0.32218430352381666,undefined,1493659756989
903d185fccf839df,4.924428891898223,1.4435814778123066,0.1744098177420231,2.1917084490952314,4.5895488153399375,0.5962934890791379,-0.3625168989832283,4.078285608961894,11.999823012168294,8.762604012990076,1.985580506207385,0.053802144179996965,-0.26037488859180036,0.5486806562086529,0.7766117268871413,2.504696816703438,0.3926845343876943,0.43204365904173286,0.6495398328853361,3.9686263026322295,1.0494950159134555,-1.1850646768604796,1.6137627781056607,0.3032701058282719,undefined,1493659757924
903d185fccf839df,4.826021671681626,1.348485048116642,0.15335546096161742,2.16337425165002,4.352525216410412,0.5630179788912555,-0.3950055221368835,3.5650042399512967,10.759729248780811,6.680214889191502,1.723810168678733,0.025734904951597158,0.018145610516934058,0.5570131586506825,0.7871381309663826,2.504696816703438,0.40427881462754445,0.42519141379454806,0.6645409951113131,3.974816476759275,1.054216808315083,-1.2054692370862505,1.6036645405901013,0.3264903656664184,undefined,1493659758932
903d185fccf839df,4.792757352524448,1.337918778150457,0.10422862847400415,2.16337425165002,4.383382307605839,0.5714451674641999,-0.40758914454257117,3.5808413990196906,10.617815314338511,6.854934969561848,1.7743263636229554,0.028377646750208783,0.018145610516934058,0.5570131586506825,0.7734539175693226,2.6198714868432655,0.41871050801564447,0.4217589580224216,0.6728881907624567,3.9888906549548193,1.057978119881721,-1.2019566697201867,1.5965710297676763,0.34182718988176175,undefined,1493659759910
903d185fccf839df,4.792757352524448,1.337918778150457,0.10422862847400415,2.16337425165002,4.383382307605839,0.5714451674641999,-0.40758914454257117,3.5808413990196906,10.617815314338511,6.854934969561848,1.7743263636229554,0.028377646750208783,0.018145610516934058,0.5570131586506825,0.7734539175693226,2.6198714868432655,0.41871050801564447,0.4217589580224216,0.6728881907624567,3.9888906549548193,1.057978119881721,-1.2019566697201867,1.5965710297676763,0.34182718988176175,undefined,1493659759965
903d185fccf839df,4.792757352524448,1.337918778150457,0.15335546096161742,2.2250282670104844,4.399098853784906,0.5705693743699746,-0.40315003210584976,3.588898163670287,10.654301719394315,6.849097911197159,1.7885854388565208,0.01756694580164809,0.018145610516934058,0.5912689933896209,0.7734539175693226,2.7714169745380133,0.45518772239696587,0.4322526461221834,0.6712159529935161,4.006722053893106,1.0662761117325563,-1.2379303876638053,1.662033577822758,0.30053867607137563,undefined,1493659760921
903d185fccf839df,4.697122158904284,1.337918778150457,0.15335546096161742,2.2250282670104844,4.35542578565996,0.5800051230073486,-0.4027765989664902,3.6368941004949695,10.406083448918418,6.781412505435939,1.809974782861761,0.014880469058941337,0.018145610516934058,0.5996015217331996,0.7734539175693226,2.872447299667845,0.5039199378429208,0.4419483831967872,0.6742805564388853,4.036210075939996,1.076631223805961,-1.2348435256238077,1.750428289708477,0.3041867829461964,undefined,1493659761951
903d185fccf839df,4.697122158904284,1.3050459382556592,0.1208169413408364,2.16337425165002,4.35208293532477,0.5673084389249656,-0.4089566432602486,3.5384875610363884,10.420401699258859,6.795054753319548,1.7892699810419257,0.03645275306321578,0.02684937611408201,0.6245990031577391,0.7945064901363238,2.949230337721806,0.5370401158892881,0.44625478494170695,0.6803188044884915,4.0509925827068445,1.0827338986950448,-1.2259488575107877,1.7646644932695266,0.3215580390340852,undefined,1493659762913
903d185fccf839df,4.697122158904284,1.3050459382556592,0.1208169413408364,2.16337425165002,4.35208293532477,0.5673084389249656,-0.4089566432602486,3.5384875610363884,10.420401699258859,6.795054753319548,1.7892699810419257,0.03645275306321578,0.02684937611408201,0.6245990031577391,0.7945064901363238,2.949230337721806,0.5370401158892881,0.44625478494170695,0.6803188044884915,4.0509925827068445,1.0827338986950448,-1.2259488575107877,1.7646644932695266,0.3215580390340852,undefined,1493659762958
903d185fccf839df,4.697122158904284,1.1800113929198957,0.12336898458694619,2.150651710899581,4.383989169286555,0.5443281639544165,-0.41036358955364166,3.389037738072535,10.593396790974953,6.7532221432084185,1.820703327454529,0.029326071481625453,0.02684937611408201,0.6264506790009287,0.8081907035333837,2.9754983262697374,0.549799785764631,0.4426386739745729,0.6751481611588712,4.041045187406262,1.0781221337358358,-1.2115157876712035,1.784820419088425,0.3584082215872486,undefined,1493659763926
903d185fccf839df,4.697122158904284,1.1700322548638014,0.12336898458694619,2.1388508703457605,4.394634865611342,0.5144556689544671,-0.4099033734237427,3.1756969000034387,10.817639909463011,6.750017987235715,1.8248198393671715,0.020136434252367743,0.02684937611408201,0.6264506790009287,0.8166116854418879,2.9754983262697374,0.549799785764631,0.44136575213485374,0.6820540132433518,4.0418305083259565,1.0809141498822208,-1.2172613410784157,1.786950842705026,0.3430083246439674,undefined,1493659764954
903d185fccf839df,4.697122158904284,1.1089824612352384,0.12336898458694619,2.124557829243035,4.4116782633695015,0.4924117481667124,-0.41181787244032053,3.025165841137071,10.965934423057774,6.754578523893591,1.8289691246232254,0.02982218302230285,0.02684937611408201,0.6301540306873079,0.8166116854418879,2.9754983262697374,0.5370401158892881,0.4367743680296478,0.6859792243714992,4.050099474136416,1.0831214693470756,-1.223888043472766,1.7808373373677784,0.3404342380028732,undefined,1493659765907
903d185fccf839df,4.697122158904284,1.1089824612352384,0.12336898458694619,2.124557829243035,4.4116782633695015,0.4924117481667124,-0.41181787244032053,3.025165841137071,10.965934423057774,6.754578523893591,1.8289691246232254,0.02982218302230285,0.02684937611408201,0.6301540306873079,0.8166116854418879,2.9754983262697374,0.5370401158892881,0.4367743680296478,0.6859792243714992,4.050099474136416,1.0831214693470756,-1.223888043472766,1.7808373373677784,0.3404342380028732,undefined,1493659765962
903d185fccf839df,4.465658214145531,1.1089824612352384,0.12336898458694619,2.1500877943094907,4.355333215500903,0.48694269516272076,-0.4126041844615921,2.9449803518192463,10.974193088315685,6.811278099875275,1.8360562120797357,0.017962742608126248,0.0007380793226381577,0.6301540306873079,0.8239801624075698,2.9754983262697374,0.5303762293253204,0.4409984415898116,0.6920034781509432,4.051962686210427,1.0872972309161117,-1.2226690172991486,1.7725395765883252,0.32690049633876583,undefined,1493659766928
903d185fccf839df,4.325670594982462,1.0649566871120424,0.12336898458694619,2.1483785206267307,4.31083728831602,0.47754421524438834,-0.411034190353453,2.846638384047498,10.94162261914431,6.863107608832147,1.84925496346429,0.009255490700626779,0.02684937611408201,0.6662615153678868,0.8239801624075698,2.9754983262697374,0.5105725734918716,0.448819627291614,0.6908140202896742,4.05963111153111,1.0920936948484616,-1.2440758298787147,1.7650860254150937,0.3136975027919354,undefined,1493659767868
903d185fccf839df,4.325670594982462,1.0737620289958325,0.13102511432527553,2.1483785206267307,4.302948156116846,0.47179565195047396,-0.4125095115696359,2.806102529537913,10.887533403460369,6.860216724245669,1.862880299922825,0.03482796758020784,0.02684937611408201,0.7032949286254824,0.8102959490105098,2.9754983262697374,0.4708159956151272,0.4558238631427629,0.6976848886562103,4.068577609318151,1.0984099833484546,-1.246990893659655,1.7599738881527738,0.30025495929582713,undefined,1493659768840
903d185fccf839df,4.325670594982462,1.0737620289958325,0.13102511432527553,2.1483785206267307,4.302948156116846,0.47179565195047396,-0.4125095115696359,2.806102529537913,10.887533403460369,6.860216724245669,1.862880299922825,0.03482796758020784,0.02684937611408201,0.7032949286254824,0.8102959490105098,2.9754983262697374,0.4708159956151272,0.4558238631427629,0.6976848886562103,4.068577609318151,1.0984099833484546,-1.246990893659655,1.7599738881527738,0.30025495929582713,undefined,1493659768894
903d185fccf839df,4.300722355614578,1.0937205389319598,0.12336898458694619,2.154960982525419,4.28186247720799,0.45611521301215335,-0.40852009591801847,2.7032264259246084,10.848813140993775,6.901171492946317,1.8745848097675384,0.04491733968170723,0.0660163213012478,0.7032949286254824,0.7945065195852589,2.949230337721806,0.428278150112471,0.455184235604343,0.7084459840659243,4.072458018162957,1.1025281253233057,-1.2576242008536915,1.7588911255395372,0.27229538264222736,undefined,1493659769901
903d185fccf839df,4.300722355614578,1.0937205389319598,0.12336898458694619,2.156670256208179,4.263492221725136,0.4540747995859692,-0.3884546761112469,2.7648905874958034,10.867385710760956,6.807887360284217,1.8380911043100283,0.05131922163681426,-0.025373217468805696,0.7060724294394922,0.7671380044443334,2.949230337721806,0.3896933461506581,0.45173278127248107,0.7179966310655151,4.072042259826274,1.105540985838984,-1.272543611606089,1.767323126382087,0.2454107235103429,undefined,1493659770932
903d185fccf839df,4.325670594982462,1.1377463130551557,0.1208169413408364,2.1643808354122163,4.297517307216309,0.4795403708489759,-0.3832608092948177,2.9690655165751245,10.96282374253783,6.7820344473396466,1.8376664794481345,0.038457407101373645,-0.08194769385026737,0.7319958394410484,0.7671380044443334,2.949230337721806,0.37141997725978715,0.4562925004544432,0.7175278447428951,4.0814969048725755,1.1093430091834682,-1.2849752320096055,1.767205153251402,0.2273230018523851,undefined,1493659771844
903d185fccf839df,4.325670594982462,1.1377463130551557,0.1208169413408364,2.1643808354122163,4.297517307216309,0.4795403708489759,-0.3832608092948177,2.9690655165751245,10.96282374253783,6.7820344473396466,1.8376664794481345,0.038457407101373645,-0.08194769385026737,0.7319958394410484,0.7671380044443334,2.949230337721806,0.37141997725978715,0.4562925004544432,0.7175278447428951,4.0814969048725755,1.1093430091834682,-1.2849752320096055,1.767205153251402,0.2273230018523851,undefined,1493659771904
903d185fccf839df,4.325670594982462,1.1377463130551557,0.0908304014319278,2.1709632973109048,4.302166443902119,0.47704575575311114,-0.3815435458653638,2.954647266301575,10.97623639730534,6.761299720321574,1.840447914411255,0.027509554600368163,-0.08194769385026737,0.7319958394410484,0.7671380044443334,2.949230337721806,0.37141997725978715,0.4597502881120126,0.7179406565295654,4.080588396712406,1.1108138486370116,-1.2938050200009237,1.7602143405752433,0.22793851304658655,undefined,1493659772897
903d185fccf839df,4.325670594982462,1.1776633329274102,0.13995723391954107,2.185991663080947,4.3028144432096465,0.4721427068647327,-0.375689597593918,2.9383726828570413,11.024648066119406,6.698813615595644,1.8242440971389946,0.016865846051189154,-0.08194769385026737,0.7319958394410484,0.7671380044443334,2.949230337721806,0.37141997725978715,0.4627647691917178,0.7163173964979324,4.080973357592778,1.1119696661211105,-1.3024528271056734,1.7546402620818375,0.2305046602008206,undefined,1493659773913
903d185fccf839df,4.442095850054224,1.249279396522158,0.13995723391954107,2.182764137864725,4.4032234163348205,0.492949799583297,-0.37604988119219845,3.1549989590370937,11.422166498558152,6.5964314621136495,1.7966038813620757,0.018304510927991628,-0.08194769385026737,0.7384766660398884,0.7429274458659025,2.9754983262697374,0.37141997725978715,0.461783162971552,0.7229503734292363,4.073120150119002,1.1134529924009624,-1.3174374452031958,1.7690667642303872,0.2100425676622345,undefined,1493659775153
903d185fccf839df,4.442095850054224,1.249279396522158,0.13995723391954107,2.182764137864725,4.4032234163348205,0.492949799583297,-0.37604988119219845,3.1549989590370937,11.422166498558152,6.5964314621136495,1.7966038813620757,0.018304510927991628,-0.08194769385026737,0.7384766660398884,0.7429274458659025,2.9754983262697374,0.37141997725978715,0.461783162971552,0.7229503734292363,4.073120150119002,1.1134529924009624,-1.3174374452031958,1.7690667642303872,0.2100425676622345,undefined,1493659775236
903d185fccf839df,4.302108230891155,1.2093623766499038,0.14825137446939787,2.182764137864725,4.343566374167874,0.49550497483993294,-0.37040105785279764,3.113699221620434,11.532331072473525,6.626401512390546,1.7836066589499677,-0.024402706370504294,-0.08194769385026737,0.738476588335241,0.735559027798091,3.0239929004214785,0.3863833696432997,0.469598015347647,0.7281210164652379,4.108567371832524,1.124807634743255,-1.328603051610658,1.7948497056686334,0.20090068070182884,undefined,1493659775890
903d185fccf839df,4.302108230891155,1.2093623766499038,0.17823791437830647,2.182764137864725,4.353389215529791,0.49624800189175167,-0.37243915743575645,3.124639581004597,11.564613113472864,6.606086654600019,1.7733960024833189,-0.01252689765436113,-0.08194769385026737,0.7347732366488618,0.7239800893270922,3.0563227672678206,0.40008796871492536,0.47523433538662596,0.7293314646551472,4.138640536933418,1.1334443227623088,-1.3414917541893734,1.7807037730960154,0.1623665762207772,undefined,1493659777005
903d185fccf839df,4.442095850054224,1.2093623766499038,0.17249581707455947,2.182764137864725,4.376244032608816,0.49920846530596014,-0.3848097648606748,3.1453426805866567,11.56599375548156,6.498996743162979,1.7913335706423856,-0.025167719233174984,-0.08194769385026737,0.7412540891492508,0.7113484986685953,3.0300547787198893,0.38314958082122674,0.48796355245501694,0.7299052033060779,4.146878706149156,1.1409006116956515,-1.3690913863908294,1.766360255881869,0.14813526438274607,undefined,1493659777871
903d185fccf839df,4.442095850054224,1.2093623766499038,0.17249581707455947,2.182764137864725,4.376244032608816,0.49920846530596014,-0.3848097648606748,3.1453426805866567,11.56599375548156,6.498996743162979,1.7913335706423856,-0.025167719233174984,-0.08194769385026737,0.7412540891492508,0.7113484986685953,3.0300547787198893,0.38314958082122674,0.48796355245501694,0.7299052033060779,4.146878706149156,1.1409006116956515,-1.3690913863908294,1.766360255881869,0.14813526438274607,undefined,1493659777945
