UUID,iqrAccX,iqrAccY,iqrAccZ,iqrAccXYZ,meanAccX,meanAccY,meanAccZ,meanAccXYZ, covarianceAccXY, covarianceAccXZ, covarianceAccYZ,pressureDerivative, pressureIQR, iqrGyroX, iqrGyroY, iqrGyroZ, iqrGyroMagnitude, meanGyroX, meanGyroY, meanGyroZ, meanGyroMagnitude, covarianceGyroXY, covarianceGyroXZ, covarianceGyroYZ, class, timestamp 
903d185fccf839df,-0.6709123828751464,-0.9452783075980895,-0.2591189098963,-0.4579249565211399,-1.0525926855430632,-1.6525594494015101,1.849107641368466,-1.0499288545263321,-0.31585220341014,-0.6944539187451939,0.00009823210201356588,0.9360713861245947,1.778482202540107,-0.4410357693682624,-0.9981272907125148,-0.564606519543166,-0.7581443846633604,-0.5012019192328989,-0.9976725936533256,-0.585743522200348,-0.7416894992286891,-0.3712392015481748,-0.5328032175998462,-0.3994291168322043,undefined,1490687775022
903d185fccf839df,-0.6113137765464594,-0.5980586147013731,0.10678060818587658,0.03646531127998686,-1.0856985347330037,-1.713766252345688,1.8562560959366425,-1.0324741468932181,-0.3907250723489997,-0.8607808843732917,-0.049981578534777665,0.47751918345664834,0.5882422571301248,-0.4252965894550236,-1.01917992953962,-0.15442312874001698,-0.8049104825326304,-0.4865725698581156,-1.0123372532101882,-0.2650536407449911,-0.6833655010739995,-0.40782860888470535,-0.5900975960964849,-0.5018183120964498,undefined,1490687776399
903d185fccf839df,-0.5364690239373989,-0.46832818320457714,0.48129308162096157,0.41914792527767625,-1.0574597641950632,-1.7338124864970044,1.920994350194432,-0.6140066148576668,-0.43586020437029027,-0.5119089393798937,-0.00015416476173669172,0.34050066108248844,-0.4670893215240642,-0.3438231890748195,-1.0802326299927452,0.03551399104059729,-0.6360932528305147,-0.4318926783085765,-1.0134892004890987,-0.09766308290996181,-0.6240267192467103,-0.4418634606491497,-0.5337597565183284,-0.5530064770839108,undefined,1490687777953
903d185fccf839df,-0.4838003805835614,-0.35444712742906626,1.0325351851915223,0.9798751498073284,-1.058070279711535,-1.7280496744368643,1.938944697077594,-0.48013416324076624,-0.3384167596404283,-0.5177494176324012,0.09784580395646547,-0.15559727991830924,-0.6520443404634582,-0.36882067049935907,-0.9454956384279982,0.06178188066200341,-0.7304632286044387,-0.4505092221476296,-0.9561004326503305,-0.09405363060616802,-0.6109399357980803,-0.4598928702367197,-0.6383472301615318,-0.5083214898393553,undefined,1490687779421
903d185fccf839df,-0.44637798702632636,-0.3127690041064631,1.123132974565369,1.0785148974307819,-1.0671114038474212,-1.7780002096699616,1.972871824559027,-0.3102027213921553,-0.28807702619143866,-0.3474243028535025,0.07743025811517963,0.05768750308832134,-0.6302849264705882,-0.33549068663278997,-0.9539167086833079,0.029452126874547364,-0.7097448909637726,-0.42589686006870275,-0.9361850118193129,-0.14718656090625,-0.6002250782881574,-0.46602936114251997,-0.6393322498864302,-0.4957565317529296,undefined,1490687780905
903d185fccf839df,-0.6515080931838967,-0.4788944093287736,1.074006015009281,0.9486517852363319,-1.1541798280117277,-1.8639491379596185,1.9342136706950384,-0.7141558820594724,-0.19065051854464185,-0.4822336924412366,0.10978723891104163,-0.08745551252319671,-0.6955631684491979,-0.3910407158637615,-0.9212851019362687,-0.1362376634331141,-0.7370715735305987,-0.49996932582724546,-0.9204395842111757,-0.24040015614245572,-0.6463942593478557,-0.48346438987949847,-0.6044912501458403,-0.5162142395040616,undefined,1490687782421
903d185fccf839df,-0.5281528061264655,-0.596884555477138,0.46406717091514466,0.34261038411747324,-1.0307617492691492,-1.9267361085928933,1.891090108978496,-1.0867061615420592,-0.26116680635857575,-0.6127719090038664,0.04282864589327424,-0.008859289690006949,-0.4866727941176471,-0.4456649395500746,-0.93075877284344,-0.28576266164121217,-0.798526003058051,-0.5531850509171902,-0.9180956524634987,-0.3015473819057502,-0.6835012719581689,-0.481007427879304,-0.6265919696164934,-0.5010301929409912,undefined,1490687783923
903d185fccf839df,-0.5960675612552666,-0.6203651554019934,0.20950073004721936,0.18005686192149414,-1.0544394246359081,-1.8510847467943297,1.8794979300731354,-1.0961069856353722,-0.31104529089612504,-0.6539806920793255,0.06730757308364853,-0.054116091532856916,-0.6955631684491979,-0.5586166544290454,-0.9349693006088611,-0.5747095888002871,-0.8358575533120544,-0.655373429497627,-0.9214961023293496,-0.4567483159147761,-0.7646568311581047,-0.45167545998596376,-0.6699270570513826,-0.4646009581288897,undefined,1490687785439
903d185fccf839df,-0.31609263347781646,-0.6949161478473868,0.35241515182936706,0.3250588046760926,-0.9641310095994464,-1.7903544920133942,1.865481073421816,-1.1164833673385746,-0.3117473703109077,-0.5852376599507152,0.08544698284892693,-0.04320176155969906,-0.7477857620320856,-0.5613941552430552,-0.9749693475104132,-0.6737193679140262,-0.8675928537293243,-0.6877917685642264,-0.9484408213702231,-0.5786886079482957,-0.8149619911629667,-0.42641637073849686,-0.638293029427268,-0.47770567432797983,undefined,1490687786920
903d185fccf839df,-0.19966734390064458,-0.6456068587771978,0.5769947033500783,0.5833663325793301,-0.9981972398712918,-1.828370006525274,1.8976777923192127,-0.9491076816278444,-0.2758273675602987,-0.5092358204811208,0.1087381960680891,-0.03826029039170955,-0.8000083556149733,-0.6771233709360358,-1.0107588592843104,-0.7444406548608237,-0.9227841153771569,-0.7741097900455055,-0.9614478920865039,-0.6711100765745458,-0.8781695804021633,-0.43993922401447305,-0.6759084701494452,-0.5196309263508647,undefined,1490687788408
903d185fccf839df,-0.2564939236329002,-0.5282037130129587,0.8347513253441156,0.8692183505152319,-0.9681527165113234,-1.8872322113058004,1.8903642957927915,-1.0485683023005425,-0.26690595818080837,-0.4070348790827841,0.09684070212735792,-0.03166611271291938,-0.6563962232620321,-0.7039725800068631,-0.9949693635989554,-0.6818017780961687,-0.91593490731024,-0.7598036699682238,-0.9629032275254406,-0.6584525552254368,-0.8728998618415964,-0.435235101213281,-0.6634881750788716,-0.5038731689909409,undefined,1490687789911
903d185fccf839df,-0.31609266798322616,-0.6391496937978626,1.0848518175998234,1.0789177634712657,-0.9064076767072711,-1.9340801994422478,1.9525013444079071,-0.6647322792405768,-0.29462223834500606,-0.7028464376595043,0.14681460438213478,-0.0550627020889153,-0.8304715352049912,-0.734525101911746,-0.9812851502018954,-0.536318041508585,-0.8556351384768406,-0.7430593674222562,-0.9503159646848934,-0.544427067086092,-0.8419685122292349,-0.3978736174489497,-0.599262757632487,-0.4873283380300512,undefined,1490687791446
903d185fccf839df,-0.4630101466049154,-0.7524437053472597,1.155671398884794,1.2315911760450127,-0.9218053635174271,-1.9320491024564848,2.017278720938132,-0.25200122975636446,-0.3226448248042767,-0.7120288919342326,0.19048987248978627,-0.1328142037135235,-0.7347301136363636,-0.6141666901354041,-0.9865483080681133,-0.37871066138306597,-0.8469720283988933,-0.6990200769124991,-0.93840739217518,-0.46968301424951053,-0.8027033167841989,-0.4142809354636701,-0.5590740379469904,-0.4685997218855017,undefined,1490687792924
903d185fccf839df,-0.540626960315817,-0.8117322201575198,1.274979547708901,1.2731258749077883,-1.0278200466318963,-1.951668284611847,1.9641540135067788,-0.6491252219229452,-0.31390871103647267,-0.7061222618262089,0.19770808460870715,-0.17540209774737728,-0.016669451871657744,-0.5558391600904228,-0.9970746164383153,-0.2857626475088514,-0.8236855647978052,-0.6675643457444065,-0.9510016512454829,-0.4393480767741753,-0.7860397830265258,-0.40623136442754293,-0.5471319511217996,-0.4553630936835803,undefined,1490687794421
903d185fccf839df,-0.4477640003245421,-0.8058620994042983,1.0089289122334817,0.9565113919958887,-1.0188612018286916,-1.9498747709912518,1.9396100321162875,-0.8055113704496897,-0.318454150165789,-0.6604246989177954,0.210247519695255,-0.17971243032516118,0.17916527406417115,-0.5382483043339944,-1.0318115128358833,-0.22110321059574314,-0.8483679484295062,-0.6375335270864371,-0.9610910533187522,-0.36960851733448125,-0.7609263593451161,-0.4095953044847791,-0.5376352268434147,-0.457429096501942,undefined,1490687795929
903d185fccf839df,-0.4643961253977214,-0.7500956161267818,1.1448253421573023,1.1337919951457296,-1.0623902717655087,-1.9617119649419479,1.8900092560886113,-1.151701088280189,-0.32093746663406963,-0.4908730078140019,0.2224851705678414,-0.08428783757005018,-0.5998217468805704,-0.5197316430329075,-1.0360220406013043,-0.22312382727363952,-0.8244218329479488,-0.5808726797722713,-0.963735847915775,-0.3157139593763879,-0.7264645541446914,-0.41026617859759124,-0.4915739952332783,-0.4551129948092201,undefined,1490687797409
903d185fccf839df,-0.21214146358458635,-0.7577268403303522,0.9208831661057448,0.9965160922843941,-0.8797882950603105,-1.9366563379836752,1.8990058215941574,-1.0213157877817918,-0.32441341578886845,-0.600489327153379,0.2926038036744222,-0.029716870007453575,-0.7521376448306596,-0.5289899704457572,-1.0381273081651317,-0.29990686532760075,-0.886040504449376,-0.5555535706067849,-0.9801923465349501,-0.34632606874859534,-0.7267013044219595,-0.43703099753060354,-0.4531031725118093,-0.47162584629946774,undefined,1490687798913
903d185fccf839df,-0.11512049820407395,-0.708417522032171,1.1563095367647962,1.0783667657314386,-0.8856100014765765,-1.9481697675159222,1.9114211336974871,-0.9407112549580534,-0.242436927208863,-0.42871604102699284,0.4284310509362154,0.03586923583613379,-0.843527183600713,-0.45399738371361864,-1.027600992432696,-0.287783250054387,-0.8081015224476091,-0.47975456878404704,-0.9698720506508949,-0.33964314320951017,-0.6886611984660532,-0.44352058419391266,-0.42834501949018616,-0.49744950984940656,undefined,1490687800401
903d185fccf839df,-0.17749113112919254,-0.6972642370678646,0.9457654606868404,1.0682978034500157,-0.8430066421386655,-1.9378698716592169,1.9183086041578417,-0.8632106619350238,-0.2537667126396559,-0.44054090592341594,0.4608529056434861,0.0742402643222909,-0.7695451760249554,-0.5030666381488484,-0.9560219394359664,-0.17260860817928061,-0.7988667429151401,-0.48570753740213535,-0.9232732895515823,-0.20961866916102656,-0.6579991543051633,-0.48060856964341997,-0.4022763448931949,-0.4809631292186925,undefined,1490687801897
903d185fccf839df,-0.3826213753084018,-0.6955031920735004,1.2156444151683738,1.2770458174806287,-0.8771654407190852,-1.9362883189709894,1.940451576557307,-0.7278212938869577,-0.2487594475745382,-0.4498009580199441,0.4721512795714919,0.02880801153308677,-0.49537655971479505,-0.5354707970445972,-0.9423377186766726,-0.12613466483779678,-0.8535046890295447,-0.515206389367017,-0.9182705687103895,-0.156494032802132,-0.6663816567528968,-0.5084767738083203,-0.40118253086131306,-0.4746656579274023,undefined,1490687803415
903d185fccf839df,-0.3895514072940708,-0.7060694766536816,1.2513732747508601,1.1834513468585959,-0.8023472767362948,-1.9503243144552187,1.9466237331428975,-0.691956054857366,-0.3145305989559177,-0.6883235031873944,0.33277482832711974,0.0028745059892764323,-0.5867660984848485,-0.5058441389628583,-0.9749693327859456,0.09411160618473792,-0.8179931923776077,-0.5125972160293383,-0.939142055304718,0.16731988323244462,-0.6042651214049592,-0.49717324877635904,-0.4690096124075341,-0.5389944014352743,undefined,1490687804912
903d185fccf839df,-0.32579469205991696,-0.7054824616555602,0.785624619924977,0.756334693501028,-0.9443618977089413,-1.9749676649814958,1.9682801840451745,-0.6052789218206158,-0.28977893887694334,-0.7822139412018937,0.2310485153210708,-0.0855037975542682,-0.19509664661319073,-0.49843740968855077,-0.95812719963756,0.19312151248972398,-0.8707024793682272,-0.5401645200563455,-0.9461388666524089,0.3523630033047661,-0.5843681521879591,-0.47791587275535724,-0.5203110521328828,-0.5588318188393461,undefined,1490687806446
903d185fccf839df,-0.35212901373683575,-0.6004066600798624,0.4838451248670713,0.5001897820262964,-1.0264931861284792,-1.955812002367799,1.969639791912119,-0.5850134049489831,-0.3392942906623041,-0.7526547472597961,0.15638342894831642,-0.08448983644991247,-0.42574643493761144,-0.5336191859552804,-0.9297061206559418,0.19312134290139477,-0.8838801967193102,-0.5765852788405099,-0.9613779215064444,0.3177011024974767,-0.6114050752878655,-0.467751034531434,-0.5319220804035035,-0.5383253672096715,undefined,1490687807917
903d185fccf839df,-0.436675911191521,-0.6479549187696834,0.5240399330617751,0.5873994806697469,-1.1750700818636821,-1.9809468224129878,1.96768322023021,-0.6678915959256867,-0.28543030667600006,-0.31440951506937487,0.162038352336504,-0.06741041306910557,-0.669451871657754,-0.6345350272796806,-0.9433903561397031,0.15877097243604232,-0.8848992178761745,-0.6655251382899996,-0.9529607581624941,0.22139922386866215,-0.6631637010808673,-0.4808936535406693,-0.5521120824047959,-0.5787097568219319,undefined,1490687809497
903d185fccf839df,-0.38816539399585503,-0.6414977537903481,1.0102049338565366,0.9698002432990048,-1.1744940810370612,-1.941536094913874,1.9504106522255913,-0.7388381444279405,-0.2965829450297158,-0.1890825185854044,0.19751621678954442,0.1017901088952528,-0.7086188168449198,-0.6502742330944685,-0.9465482538043274,0.04157585520664722,-0.9159227906537334,-0.6829787308600351,-0.9571868334062189,0.13519872891242518,-0.6855296098098308,-0.46765991110483973,-0.5640887146520369,-0.6105954850163611,undefined,1490687810900
903d185fccf839df,-0.2398618330651306,-0.7500956453547741,1.3228304856419342,1.3059245995210575,-0.9256213589431741,-1.9808163849080613,1.945648079724211,-0.7549848209700494,-0.24740148875737034,-0.6635952775100672,0.2509479463247214,-0.017200236090606717,-0.6650999888591801,-0.7335992704655385,-0.9002324115735268,-0.07764004828897349,-0.9605064112567162,-0.7165496656316266,-0.9454881656142977,0.1358608589837466,-0.6988109089687969,-0.49048263594355074,-0.528804190866307,-0.5741182517808864,undefined,1490687812413
903d185fccf839df,-0.3479710083475982,-0.6526510387546545,0.9910646095107132,1.0320653945502172,-0.9124042405313365,-1.9438303938396322,1.9646037093753017,-0.5601183275324094,-0.3587912311139194,-1.0085568944189336,0.2508335325567131,0.01773603016243154,-0.6085255124777184,-0.671568388734178,-0.856021858993255,-0.32011298970948227,-0.9626705382032714,-0.6964679005385335,-0.8989733670713083,-0.3669907801277585,-0.7719548931369439,-0.49258800353349397,-0.5960225281614728,-0.5105740736241277,undefined,1490687813879
903d185fccf839df,-0.3216366521652697,-0.6555860845172691,0.9062087903721389,0.9816439840684756,-0.9055231019967215,-1.9497862588200523,1.9677463281806848,-0.563235373443987,-0.3524264938898104,-0.5187916371125196,0.18602251845822412,-0.07087956678215376,-0.7390819964349377,-0.7113792380519106,-0.8718113325919087,-0.37466937149783014,-0.9924220605127229,-0.6820857858070597,-0.884105143530175,-0.3832515382901779,-0.7675040516159577,-0.48812833721797133,-0.5755397030155969,-0.49010240112210623,undefined,1490687815414
903d185fccf839df,-0.31747868128144197,-0.6391496937978626,1.0172229257148637,1.0734686402093596,-0.9603252947654081,-1.938626875111289,1.9428289105082688,-0.751517200930554,-0.38222906828491343,-0.306754609308634,0.1999905279139632,-0.06157734745498975,-0.7695451760249554,-0.6947142590694007,-0.8791797506597202,-0.4272052214024462,-0.9546681922332146,-0.6544171549580474,-0.8894297164666339,-0.4040086447307316,-0.7592129852762659,-0.49592528886787585,-0.5749155640043747,-0.4772028708267615,undefined,1490687816890
903d185fccf839df,-0.4671682210049724,-0.6549990841331439,1.0433814960559638,1.0311573067001591,-1.1305227301846466,-1.945856834883001,1.9557912164944273,-0.7014274586008312,-0.3576199089402507,-0.35987009855370844,0.17694295064522692,0.051920896799158754,-0.7216744652406417,-0.6641617242137432,-0.9328640477695013,-0.5120706837709107,-0.9876882966530557,-0.6504653980978182,-0.9205515310258798,-0.5049454535945419,-0.7849805999317326,-0.4795537123114054,-0.5943146848050893,-0.5125870487190097,undefined,1490687818409
903d185fccf839df,-0.39786741807254583,-0.6362146041932595,0.9227970714718524,0.9790813689785827,-1.1413638560515018,-1.949003636126298,1.9293643000140528,-0.8853887921614839,-0.34959687100207154,-0.5582783168798002,0.10268508358494093,0.029020113601393727,-0.6302849264705882,-0.6873075815981914,-0.9823377729404584,-0.4413494250888348,-1.028020518570281,-0.6744355914614766,-0.9382674557863687,-0.37841642647389306,-0.7862898379849911,-0.46583610770443695,-0.5615334634018813,-0.5115192583316183,undefined,1490687819914
903d185fccf839df,-0.33688283295105276,-0.6990252820622288,1.0389150391698474,1.0466941385076098,-1.1257398841085522,-1.9466045200046258,2.0034853855347214,-0.38241353472051,-0.36731750088273507,-0.6930119728664448,0.03210886741173997,0.025784086321376094,-0.7956564728163993,-0.6761975653913774,-1.014969401774199,-0.3443602767853528,-0.9690188575220907,-0.6912938872538607,-0.953611462253019,-0.33704080365395744,-0.7928398289657097,-0.46024151996296636,-0.5553509929342813,-0.5128068486980418,undefined,1490687821439
903d185fccf839df,-0.3937093781778986,-0.5998196304677449,1.0657117473909496,1.098054887503085,-1.1253284495852836,-1.955646625708775,1.9999456784528284,-0.41334789798639937,-0.34460985761604784,-0.7968420044935528,0.0699919320565907,0.06531922436548436,-0.9305648395721926,-0.6391642104122673,-1.0454957409574108,-0.32213353572557485,-0.979631948705372,-0.6935800799546191,-0.9641066786720248,-0.31934798838224465,-0.7964838268350676,-0.4512562831176567,-0.5466737168565659,-0.5259634656661746,undefined,1490687822902
903d185fccf839df,-0.4505360959317931,-0.7189837773843598,0.942575533697678,1.0519826097957012,-1.1148370418889006,-1.9501566086879012,2.0217336237183754,-0.26017104773652094,-0.3486747364020563,-0.8237551616216616,0.11507186740906951,-0.04378477983654211,-0.9218610739750446,-0.6752717274697826,-1.032864150298914,-0.1847322799819374,-1.0084877266522094,-0.7434583441916582,-0.9681578319127042,-0.3243986769673858,-0.8211399575900264,-0.4341087677916916,-0.5904660985389232,-0.5308364418951984,undefined,1490687824404
903d185fccf839df,-0.43667585943340637,-0.6379756345736275,0.874308503932716,0.9131034838130926,-1.1114324769833797,-1.870792441015789,1.9814502450287226,-0.4504759622517818,-0.3169345566611447,-0.8035186299897779,0.15578170516384363,0.04368156222259434,-0.9001016599821747,-0.6919367323538417,-1.0254957175066348,-0.126134650705436,-1.0070257547758945,-0.7766746331594726,-0.9666675111470355,-0.2485613345714293,-0.8232921237917796,-0.41665089198329686,-0.5872955948615168,-0.5468347617407103,undefined,1490687825911
903d185fccf839df,-0.3521289447260163,-0.5998196304677449,0.9042948850060313,0.9453537380906094,-1.0004909450474995,-1.8409921544307988,1.9134197864249014,-0.852424755717331,-0.2972412869819273,-0.9191442399200063,0.1920101409326628,0.021940130517209423,-0.9218610739750446,-0.7058242364238909,-0.9981272612635796,-0.23726804509238886,-1.0061004693350115,-0.787484967795314,-0.9809549990000298,-0.3034721920425603,-0.8403309748927229,-0.4253960870089196,-0.6117886451154061,-0.546671370043381,undefined,1490687827402
903d185fccf839df,-0.2994604738992274,-0.6373886195755061,0.7562763767316639,0.8166967186423753,-0.9628144394182722,-1.890777313796762,1.9348001042971696,-0.7560694824006972,-0.2467004543213392,-0.9583815140976627,0.168148681045338,-0.012096226154759054,-0.8739903631907309,-0.679900904126982,-1.0191799442640876,-0.28172140002069784,-1.055560438843669,-0.7653133321468647,-0.9949066392580669,-0.3236133599382979,-0.8370302636247283,-0.4234787790430159,-0.6395972138811367,-0.5428118336821425,undefined,1490687828899
903d185fccf839df,-0.2842143276188541,-0.6855238786494522,0.8832406552941002,0.8736936024561593,-0.9834166921247255,-1.912960988258049,1.9627549496839454,-0.5902887267477425,-0.2018179672206129,-0.6528003788247579,0.06423299711881614,-0.02874972588266652,-0.8783422459893049,-0.6947142396432389,-0.959179859187292,-0.25545356692873483,-1.0488085161146612,-0.7698223878956778,-0.9552347213303907,-0.2980519427860549,-0.8184690247926583,-0.436248215385937,-0.6570167838278893,-0.5234209239829222,undefined,1490687830410
903d185fccf839df,-0.32025063886705396,-0.5880793451193134,0.9495935255560051,0.9698526208868739,-0.9685435747632448,-1.9158375982866453,2.0666401717565943,0.12475904855862598,-0.32784086474438934,-0.6157929392609047,0.03192685005454332,0.013991963137739809,-0.8217677696078431,-0.7308217631761414,-0.9402324658373127,-0.32415415240347123,-1.0497683544218226,-0.7796827820374137,-0.9400306512464345,-0.3028254618571524,-0.8190557174575214,-0.45265485351462376,-0.637224935879668,-0.5285391115211499,undefined,1490687831908
903d185fccf839df,-0.3950954259815241,-0.589840346271689,0.8219916173874655,0.8999291822991781,-1.045100013469433,-1.914360860877124,2.0471796114603094,-0.028746724854526933,-0.31315393427895044,-0.501238394877075,0.08974821859987793,-0.01037955476273918,-0.8348234180035651,-0.7197117404939402,-0.9549693240596371,-0.33223659085033524,-1.055987729263174,-0.7552756185941081,-0.9328519243941518,-0.2925085045120496,-0.8030765619587538,-0.4636823441254812,-0.6249604418006005,-0.5096985165785985,undefined,1490687833397
903d185fccf839df,-0.34104094185651945,-0.6450198437790764,0.5776333495039794,0.4929636474587933,-1.0030520832239775,-1.9410749054481662,2.010409658578262,-0.30051605836866024,-0.3131456838874638,-0.5948872753420235,0.07829544780748243,0.05379785249607516,-0.7695451760249554,-0.714156751816695,-0.9391798430987497,-0.3544633460424739,-1.0549507841038552,-0.7174236130107332,-0.8976789563311928,-0.39895795681870605,-0.7890129629619604,-0.4444520522231178,-0.6737033237147044,-0.5335807730279168,undefined,1490687834926
903d185fccf839df,-0.39370941268330834,-0.5446401329603575,0.20503452729805255,0.21619839929128404,-1.151988977195225,-1.8904978056922381,1.8974463476164545,-1.039017978970028,-0.26410175365820987,-0.613384211129159,0.07393695681974045,0.08763158749366233,-0.5432472704991087,-0.6956400840402209,-0.9507587889319823,-0.4393288508080207,-1.0542594969551111,-0.6908062515153247,-0.9098394140141155,-0.4395636556296896,-0.7908929457682279,-0.4423158677103179,-0.6522662650540779,-0.5596091738270099,undefined,1490687836417
903d185fccf839df,-0.32302273447430496,-0.5968845262491457,0.45960096816597784,0.4025994919020432,-1.021545770526193,-1.9184183947837157,1.9103560638184713,-0.9497946907131082,-0.29565068220735263,-0.5474331159701161,0.0174016352526915,0.0782594717197049,-0.7129706996434938,-0.6771233774114231,-0.943390363501937,-0.4696379596528588,-1.000972194383523,-0.6619786924771864,-0.9110008844789516,-0.48940842267773116,-0.7866901334826444,-0.4428031747627375,-0.6243260500986895,-0.5517185421126474,undefined,1490687837912
903d185fccf839df,-0.44499200823352036,-0.5980585562453884,0.5023478196067914,0.5177279094260363,-0.9999560928885637,-1.9201886161833766,1.9370933086302957,-0.7744345313922737,-0.2762936614333382,-0.5014131821146316,0.0522470329560877,0.06078685058085488,-0.9914911987522282,-0.6743458895481879,-0.9097061119296334,-0.47367922127337314,-0.9989980327730404,-0.6528022561086556,-0.8930960449255844,-0.4845425150475387,-0.777289578727483,-0.43100059594428625,-0.6642868430969338,-0.5414591016803483,undefined,1490687839406
903d185fccf839df,-0.3673752290280285,-0.7489216007445352,0.6203799468078435,0.6378685481530735,-0.954256738874108,-1.9700040552129408,1.9221428565603151,-0.9216752907952919,-0.2874737252564277,-0.5455408862538,0.09111204134740268,-0.015954291953203636,-1.0088987299465242,-0.6882334195197861,-0.8844429158881718,-0.4069991111529254,-0.9811803702047076,-0.628939723994506,-0.9082231499125022,-0.3776926985417067,-0.753258111329238,-0.4460304174408564,-0.6428901525822631,-0.5472200123655625,undefined,1490687840901
903d185fccf839df,-0.40063944466897733,-0.646193859161323,0.6459001251319918,0.6839277047236634,-0.945544754368756,-1.9619262544951523,2.0169105474056996,-0.28257087125689806,-0.298783387512548,-0.4825930232258922,0.07382724845103028,-0.038646109645286524,-1.0001949643493762,-0.6373125280936904,-0.8781271279211571,-0.3888136317136618,-0.9602162841346219,-0.6914205458837952,-0.8955659191834027,-0.39369168371041846,-0.7808787349011868,-0.4629152272065469,-0.6100311367043874,-0.5033294059147876,undefined,1490687842404
903d185fccf839df,-0.4782563273906984,-0.7019603570528357,0.4270622897096034,0.386447022353114,-1.0205480563010416,-1.931511048749399,1.9973763557549982,-0.4000035987882818,-0.3081788696966802,-0.5624917429020474,0.03968184107236298,-0.11023541948077835,-0.6825075200534759,-0.648422557251279,-0.8865481908142331,-0.41710213801296425,-0.9583921593600188,-0.7231232622760927,-0.9175708888828362,-0.40659558273104457,-0.8089350801129358,-0.44802120529795436,-0.5830713660262882,-0.48417010123759413,undefined,1490687843936
903d185fccf839df,-0.5614172287998728,-0.7037214020471999,0.40281813300850994,0.39134568799898595,-1.1246598816724067,-1.924111055082425,1.9755489691988668,-0.5638076171547246,-0.2741229319362529,-0.5814823815973031,0.030628970810883966,-0.225985225869801,0.04425690730837791,-0.6882333871428498,-0.9360219454341254,-0.3241542230652751,-0.9682067004639952,-0.7612095851643613,-0.9511205974708148,-0.41794423721343,-0.8390519598678375,-0.4403086430186688,-0.5649084031730627,-0.46599306299550136,undefined,1490687845402
903d185fccf839df,-0.3618310723189363,-0.7465734969100611,0.2216225542608167,0.188274697541131,-0.9449687589835521,-1.9347812999208596,1.8888653046759476,-1.1054337010144768,-0.32559056850093065,-0.8311574212650732,0.03538369288660863,-0.3557030584911067,0.37064811720142604,-0.8058143175313437,-0.9718114572080228,-0.12411401989517885,-0.8336697145102284,-0.8171611426648526,-0.977519565428468,-0.2101422170870142,-0.8167577861739738,-0.4410533143904854,-0.6204144181983708,-0.5176702239972832,undefined,1490687846912
903d185fccf839df,-0.1871932932275223,-0.7260279573618164,0.41430207347905457,0.36570540141939134,-1.0081229389197803,-1.9833692304529729,1.8928862746956232,-1.1262384458570653,-0.31009628119943444,-0.7378562857339628,0.05586089002161326,-0.3066839681065113,0.6752799131016043,-0.8919168557164235,-1.0139167716734023,0.3527494527636963,-0.7621998527340728,-0.8849933031131645,-0.9986429371837716,-0.059068074548441124,-0.8205501899045567,-0.4335348315034312,-0.6131351030062636,-0.49999106085996575,undefined,1490687848395
903d185fccf839df,-0.28975841531712687,-0.7119395827929069,0.6159137440586766,0.6419747677913585,-1.0557662854574081,-1.982710056007561,1.9126492691991193,-1.0050338709100703,-0.3137642693834058,-0.6836571304599243,0.04478519151482583,-0.2793940280077612,0.2749066956327986,-0.8798810274895639,-1.011811496747341,0.4093263947004974,-0.7980538162001526,-0.9079312251237515,-1.0282534405263677,0.01952558990549609,-0.8283796977018812,-0.44370807694915265,-0.5755143111522143,-0.4979962196838622,undefined,1490687849919
903d185fccf839df,-0.7568452936280474,-0.8064490851744274,0.762656230709989,0.7705407728579758,-1.4063954094071391,-2.029749041527017,1.9321834723725606,-0.9954734460741606,-0.3104768502200839,-0.5780051968284341,0.06945073340916769,-0.3111939530110247,-0.2168560606060606,-0.9446893841333852,-1.029706241590939,0.2678838773363457,-0.8056014821345595,-0.9437883518874082,-1.0361738305978099,0.03008892462594496,-0.8435713312792061,-0.44717673039938044,-0.5805023997197551,-0.4999365636696248,undefined,1490687851423
903d185fccf839df,-0.7374410384422073,-0.7835555221686875,0.7798823955527553,0.7904596228377888,-1.3797143135299352,-2.0395434931117613,1.9383056590260157,-0.9560485166478656,-0.2963056521937222,-0.6517475895568914,0.12536572115145406,-0.29813931165814866,0.16175774286987524,-0.9520960616045945,-1.0454957593629954,0.23757475435914682,-0.8068024718887594,-0.9458212263538446,-1.032339578090581,0.04223829781381873,-0.8386134917181801,-0.46118898137786163,-0.5878598598649026,-0.5276836805090113,undefined,1490687852905
903d185fccf839df,-0.7859515556378733,-0.8158413616793599,0.6561082981164309,0.6179658929698822,-1.447867342646969,-2.060630095732458,1.9360466520893735,-1.0038131410898978,-0.293104951392536,-0.6315761915906357,0.20054306222589355,-0.2812736257625541,0.5969460227272728,-0.8428476660350664,-1.0254957248688685,-0.35850456526590596,-1.0190069117011988,-0.9144604891471294,-1.0353132222666235,-0.31029371088723395,-0.9123559340144056,-0.47624965701028543,-0.5518404280414753,-0.5280898944796172,undefined,1490687854409
903d185fccf839df,-0.6515081276893064,-0.8563454330847261,0.6561082981164309,0.6258314956892854,-1.3011315895644024,-2.045145312973607,1.9366120530251658,-0.9609284919200062,-0.2668263868732169,-0.7176063776500801,0.2009730303225443,-0.2989487338831812,0.28361046122994654,-0.891916842765649,-1.008653591720483,-0.49590583514190417,-1.0398621764486513,-0.9176712917299839,-1.0152743558485322,-0.4035312942681276,-0.9247086948184798,-0.4873191943049088,-0.561990665129731,-0.5482581916195823,undefined,1490687855908
903d185fccf839df,-0.596067630266086,-0.824646608572175,0.35496719507547686,0.31377867692631817,-1.2137237361394986,-2.031624079129558,1.9086756241190497,-1.1191605955284303,-0.2629912663964706,-0.6976733743407337,0.17332908973928576,-0.24463284555293172,0.14435021167557935,-0.8734001620384003,-1.0349694105005076,-0.035207239376757044,-0.869590967301032,-0.8988751145023812,-1.0183809403059714,0.0406368628664447,-0.8180613859879738,-0.49131065768297355,-0.5837989695969923,-0.5699293847914828,undefined,1490687857413
903d185fccf839df,-0.5447850002104643,-0.6585212106568626,0.5080897898420637,0.4986918394078188,-1.1717272353854977,-2.0141943819422727,1.9358888596914676,-0.9169631916532613,-0.2656773759216028,-0.7714109654319635,0.2481245882190525,-0.2184717674660676,-0.2560230057932264,-0.8400701522702821,-1.031811520198117,0.031472743552443755,-0.9007127211700899,-0.8897430096918986,-1.003064921205169,0.18006978764802622,-0.7793364576860672,-0.48518669483909516,-0.5555380747444407,-0.5603092474067183,undefined,1490687858898
903d185fccf839df,-0.7679333827610685,-0.7266150088949282,0.5604064222503647,0.5413191049348391,-1.2358585525093304,-2.02042509707701,1.9559516444571667,-0.800295011477992,-0.2649596997200324,-0.7877359674508108,0.21826469305260354,-0.19800277690444845,-0.5214878565062389,-0.8854360032160344,-1.0623378667435626,0.12644135997219397,-0.8760554965248392,-0.9114586739492424,-1.0086343825223116,0.19115666854436272,-0.7899039095243158,-0.4787964117466692,-0.5552221128445747,-0.5344361788683948,undefined,1490687860405
903d185fccf839df,-0.6861585291555197,-0.697851252065986,0.536800149292324,0.6071725410695891,-1.2589705144069392,-2.0018191347465772,1.9781077527799282,-0.6480480680822522,-0.20065310317988672,-0.6430486262219657,0.2709803670036279,-0.20939473203103778,0.1487020944741533,-0.874326019386157,-1.0286536446201942,0.22949233004464356,-0.8888449968395327,-0.9151317815478897,-0.9713413806107929,0.35110032092376,-0.7498881989077122,-0.4763235877293492,-0.5705156775052691,-0.5482894839902928,undefined,1490687861891
903d185fccf839df,-0.6528941754929318,-0.720744822378724,0.574442914240918,0.6033816741051307,-1.2849521858783066,-2.010376759378388,1.9361886426210182,-0.9375393528602443,-0.20056923622760592,-0.6524837777330192,0.22082092577563892,-0.31820251035028574,0.5099083667557933,-0.8956201815012536,-1.0307588753728527,0.029452183403990438,-0.9347901139094271,-0.9228073090412754,-0.9772886698804367,0.14026480923878226,-0.8028785539148153,-0.47615137845433897,-0.594928359601519,-0.48702631229074494,undefined,1490687863416
903d185fccf839df,-0.597453609058892,-0.814667317069121,0.6656790956317162,0.6421967319203458,-1.147658701646786,-2.0527246574057325,1.9217825823897314,-1.036939444486065,-0.28183513593926957,-0.9639872809870506,0.13426271666148018,-0.2548277125512048,0.22703598484848486,-0.8808068589357714,-1.0465483857826752,-0.08774311754609465,-0.9789546671381871,-0.9114903384959926,-0.9905756134049254,-0.18726012637301861,-0.8714207634291705,-0.48725585151447315,-0.5986065078715745,-0.5180458605634529,undefined,1490687864921
903d185fccf839df,-0.4352899496514198,-0.8246465793441827,0.7358600307627857,0.7354627658670102,-0.940741337690791,-2.0454690777454165,1.8979644372304239,-1.1457477380135201,-0.25810272843656,-0.8589820669675786,0.1486339554677148,-0.16893134823000275,-0.6999150512477719,-0.8048884601835871,-1.0297062452720558,-0.09178430850480512,-0.9430004383519356,-0.8505484214607665,-0.9831659913594011,-0.12272524153455633,-0.8332126791438126,-0.4733278718914712,-0.6093725299058368,-0.4933594586250997,undefined,1490687866410
903d185fccf839df,-0.36460316792618724,-0.7465734969100611,0.7250137198983444,0.6571893701328131,-0.9172693765648797,-2.0372282296295667,1.9134303182090175,-1.0298644192632755,-0.2787220406501881,-0.7306729010244833,0.17081256273753806,-0.003899320863682335,-0.9479723707664884,-0.7511901067958051,-1.030758897459554,-0.1766498415350734,-0.9828128460164908,-0.8113348337895687,-0.9921079158433064,-0.1590963682247556,-0.8277016444402934,-0.4698445587119061,-0.6207098684495256,-0.47363978699388337,undefined,1490687867896
903d185fccf839df,-0.42974586195314707,-0.7054824324275678,0.7951949091663634,0.7991766615863211,-1.0036280893559806,-2.012661743032986,1.9505658122012288,-0.7842618445049926,-0.27672674165059913,-0.6681733219519402,0.19489425584499045,-0.0499709209540413,-0.9914911987522282,-0.7382284212211889,-1.0191799221773863,-0.3362778666032103,-1.048610576685973,-0.7920573534404443,-0.9804932099470658,-0.2707966925825651,-0.835196860405702,-0.4673336764797927,-0.6399637270933262,-0.5144627425974,undefined,1490687869405
903d185fccf839df,-0.6709123138643269,-0.7113525824087817,0.8334758119949596,0.859577708767301,-1.162737533593204,-2.012212199275458,1.8872874142175855,-1.242905577138248,-0.26622990064211405,-0.5697941399404219,0.20018660913579622,0.019622983040155452,-0.9523242535650625,-0.7669292931844313,-0.9739166953229149,-0.31000994871708265,-1.0193606766083074,-0.7677388499130424,-0.959719678044368,-0.1775437082656979,-0.8080991055102925,-0.4644788037256713,-0.6077804901153538,-0.5061108760476799,undefined,1490687870895
903d185fccf839df,-0.5766634440910655,-0.733072137339273,0.658022457619488,0.6923691004760482,-1.1155056173377402,-2.0120328484505063,1.98281512193029,-0.5985720828431336,-0.3098365062576924,-0.3795894873449668,0.16509282050733592,0.02533805341291956,-1.0088987299465242,-0.7817426092745262,-0.9307587802056738,-0.295865688501251,-1.044977053602789,-0.7385186478686059,-0.9493224169470504,-0.23981502174471697,-0.8050149251742584,-0.45415509722150377,-0.5955742062010418,-0.48264810431679556,undefined,1490687872413
903d185fccf839df,-0.5267667928282498,-0.7090045224162962,0.5872031304714669,0.5801179983755349,-1.1432049967996425,-1.9871868538830442,2.008976437164772,-0.3926928722052343,-0.3318526459564715,-0.37827556926555034,0.11444148407354421,0.0027705976816763175,-0.9784355503565063,-0.7798909463821111,-0.942337703952205,-0.26757721046667005,-1.016595280665046,-0.7295828644117824,-0.9399256996521711,-0.2509172981921029,-0.7980302372186705,-0.4529756691454201,-0.5589679824569537,-0.4852682081223031,undefined,1490687873899
903d185fccf839df,-0.5045905800567977,-0.7688801252946585,0.532334454817056,0.4999913600618232,-1.1083879107260102,-1.99787340358854,1.9584289329377047,-0.7326002606311431,-0.3387609409112924,-0.3628933846789885,0.1072897365366309,0.004878697764634761,-0.9827874331550802,-0.7724842818616764,-0.9707587976582908,-0.2655565513916914,-0.9858043478725294,-0.7323883584331838,-0.9461528609776242,-0.15634004510325247,-0.7885189028674615,-0.4553373452481079,-0.5444270397231665,-0.48527900477474023,undefined,1490687875413
903d185fccf839df,-0.20936947149356458,-0.8117322639995084,0.658022457619488,0.6638599729584923,-0.9747767049639826,-2.03903571985473,1.9869202404231932,-0.5560632238486333,-0.24723367817741526,-0.5316753713932781,0.18868866560470263,0.055622403135365206,-0.852230949197861,-0.7660034552628364,-0.9823377876649261,-0.20089711447858313,-0.9434837475434283,-0.7403298694170667,-0.9577955551878572,-0.09762577245501433,-0.7763632115821962,-0.45438564596908654,-0.5315388317310926,-0.5148624625671774,undefined,1490687876928
903d185fccf839df,-0.15115691296850298,-0.8046880694080555,0.597411303455906,0.6368983853140806,-0.8723928789996803,-2.04275085576437,1.9862154457622836,-0.5363117897403751,-0.2368562836069784,-0.4724806753803042,0.17437565706112307,0.08373824754195539,-0.47361714572192515,-0.7234150921803194,-0.9686535374566971,-0.1705879632366627,-0.8916454050063308,-0.7235349032663132,-0.9418918041936282,-0.06504266264456135,-0.7569355506880292,-0.44006900884071115,-0.5292575382377734,-0.49621620120015153,undefined,1490687878409
903d185fccf839df,-0.39232336487968283,-0.8369739235327242,0.49405380612540933,0.5131153302217247,-0.9852064011088197,-2.0463122618992213,2.044160589751391,-0.18857927097390095,-0.23882999627717288,-0.312606034262989,0.1982334098186847,0.038314794510202935,-0.678155637254902,-0.7280442558867443,-0.9760219849734437,-0.09784608787669044,-0.8856938829680062,-0.7408871695292538,-0.9457610404983235,-0.0032640979120448386,-0.7532048345343553,-0.43298883723363063,-0.47870978125194236,-0.4817630563226892,undefined,1490687879928
903d185fccf839df,-0.3715331999118563,-0.8041010690239303,0.4449265924323719,0.44544729422995283,-0.9435287585254183,-2.038942548649685,2.0296992947434327,-0.2754890954563336,-0.24836054254605172,-0.2391642761259758,0.17615265435533348,0.00627359029843536,-0.7869527072192514,-0.7132309268458747,-0.9549693093351695,-0.0412690894104462,-0.8590357035564546,-0.7421537590343287,-0.9246096817136105,0.055819734344035254,-0.7345892797975575,-0.4518468143956159,-0.5284107544762776,-0.49295492053899126,undefined,1490687881399
903d185fccf839df,-0.591909555866029,-0.8340388339281211,0.7103393441647385,0.7092137012249259,-1.094923930427906,-2.0448541572074532,2.0086214037457224,-0.4540749974817691,-0.25225066378178174,-0.3183049003762635,0.14772783745974208,-0.09000064164802801,-0.7956564728163993,-0.6928625702754365,-0.9318114029442368,0.1062352355903124,-0.8424789868396432,-0.7438446547082858,-0.9138625808370916,0.08141195029881888,-0.7239229361220098,-0.4315037180145852,-0.5397704678144719,-0.4608765487721739,undefined,1490687882923
903d185fccf839df,-0.46855423430318816,-0.7589008410986026,0.5106418330881735,0.5829166158265403,-0.994453242028216,-2.0275758607464622,1.9815712159880503,-0.5851193168451595,-0.2563165804107885,-0.29533948677626837,0.14338107205596703,-0.10174973129850819,-0.6215811608734403,-0.7215634163371298,-0.9591798812739933,0.13654437269987205,-0.8797996382003426,-0.7304124812792707,-0.9050535956191508,0.04565675991869236,-0.7263311092183311,-0.44593565256109385,-0.5481293398049849,-0.4276125456492891,undefined,1490687884407
903d185fccf839df,-0.43251788854957857,-0.7653579987709398,0.5489224817798202,0.6348120808345458,-0.9764532760719016,-2.040272543462517,1.9662473339212756,-0.6927790473616128,-0.28474992610788574,-0.3253007565201277,0.1476468074688324,-0.10077660557883382,-0.26037488859180036,-0.7595226092378347,-0.9654956766032418,0.1951420726381773,-0.9091849242564245,-0.7379740157698534,-0.8975740043699056,0.1424359909621456,-0.7126036971278604,-0.45242084036404356,-0.512856822702323,-0.4516640168229091,undefined,1490687885901
903d185fccf839df,-0.361831106824346,-0.7477475269063039,0.5986875792159103,0.588938511973928,-0.8857128583629394,-2.0368788421762454,1.9878511960869327,-0.5354005422947024,-0.2680100555368496,-0.3571632615203696,0.1602088413603934,-0.051124102934470186,-0.7826008244206774,-0.7558192769776173,-0.9728641093955209,0.14260612380703583,-0.9687415882725994,-0.7319260538658608,-0.8942505190505574,0.2062933422623986,-0.6947030888067436,-0.45767944872104716,-0.5203542009841408,-0.483462925839922,undefined,1490687887398
903d185fccf839df,-0.34381296845295095,-0.765358020691934,0.6599361088486462,0.7127988852484972,-0.8980762644227148,-2.031493641457918,2.0158086602781933,-0.36250081897527403,-0.20291311808758006,-0.28564744869983705,0.19387121208405259,0.036215070579561796,-0.7956564728163993,-0.7447092866723525,-0.9328640477695013,-0.03924847273254981,-1.024154780625592,-0.7275943200472514,-0.8833075064907618,0.05820649494983768,-0.7140263437228316,-0.45872773109187226,-0.5576368666335562,-0.5107460189946653,undefined,1490687888916
903d185fccf839df,-0.39509549499234353,-0.8181894289788436,0.6988551495572445,0.7088933505892467,-0.8946922681945633,-1.9991777766408638,2.014062466588245,-0.359361348183315,-0.18972920690046707,-0.2700198454040556,0.26111568142253105,0.08995905534792523,-0.8217677696078431,-0.6687908749693936,-0.9086534671043689,-0.004898130531918921,-1.0036300259241753,-0.7118632880965632,-0.8688101139933802,0.10537193367490871,-0.6946759197589767,-0.44848076385087393,-0.49967806568354434,-0.49931429773595143,undefined,1490687890593
903d185fccf839df,-0.4352898461351906,-0.7600748564808493,0.739687841495001,0.7725748395752304,-0.9499984591758892,-1.9998066715640188,1.9815370280192617,-0.5883361087856493,-0.15791154107142796,-0.09746126145094632,0.312860537322793,0.03766791719151495,-0.7869527072192514,-0.5984275102221653,-0.9297061353804094,-0.04935155612203175,-1.0086567502924995,-0.6842326546161721,-0.8868129084830605,0.08969631533553883,-0.69041698376662,-0.44980747792307213,-0.45864399075808354,-0.5120103269364625,undefined,1490687891938
903d185fccf839df,-0.35490104033326725,-0.763596990311566,0.6139995845556195,0.6193316397918226,-0.9156339469647811,-2.0074046496833744,1.976887525020318,-0.6115718215950087,-0.17893209993198353,-0.03494155274118144,0.30336916376023304,-0.01724149257576086,-0.9044535427807487,-0.5789849980487091,-0.9128640095942576,-0.035207295906200115,-0.9824342432162173,-0.6782606886951714,-0.8701744924263023,0.1145494074166793,-0.6721089691577855,-0.44875394352170495,-0.47224347123761756,-0.5487528033938219,undefined,1490687893416
903d185fccf839df,-0.25233591824366264,-0.7442254369175756,0.7033210981694619,0.7464740700973583,-0.9848669728844925,-2.0222186112213034,1.9266792649163,-0.9618717952363843,-0.2088769289711111,0.11605963586611291,0.20938695630673534,0.008912872446542087,-0.9784355503565063,-0.5706525020820669,-0.8970745212711364,-0.07157816999056278,-1.0183480577783706,-0.6390534333696913,-0.8609526962046748,0.0913131526593537,-0.6606671076504594,-0.45325320839778505,-0.4919734017294301,-0.5283530016150587,undefined,1490687894936
903d185fccf839df,-0.35212901373683575,-0.8510622981016336,0.5023478196067914,0.5348342084655832,-0.9348682050479208,-2.02396554055134,2.020542310702843,-0.33129050794831877,-0.23413537505944243,0.01359005788337721,0.1815159557727718,0.017922780843771458,-0.9305648395721926,-0.5956500029327682,-0.9370745828971561,0.06784373069569256,-0.9916867250146209,-0.6236643796578155,-0.8416554911645077,0.20911126008112407,-0.6248370730215909,-0.47230607312855194,-0.47185585761611665,-0.5315228163855599,undefined,1490687896402
903d185fccf839df,-0.25510794484009414,-0.817015413596597,0.5316965710740033,0.5614262729763797,-0.9040625408192912,-2.0275432526749464,2.018990721421683,-0.3363550574586964,-0.2324160685369842,-0.029747261570215604,0.26093832426719155,-0.010395050405615227,-0.8957497771836007,-0.5549133545457644,-0.9328640256827998,0.20524509949821615,-0.9709307916868766,-0.5535080306073406,-0.8617363380930694,0.23076147242656797,-0.5898251395189041,-0.48622102398425127,-0.43881861346387363,-0.580308478808926,undefined,1490687897908
903d185fccf839df,-0.19966741291146406,-0.7712281999011402,0.7920044739033021,0.7521773424128079,-0.773835327160341,-1.9928538929204795,2.010506971257874,-0.29797771537083273,-0.26749663758618925,-0.043184475782443464,0.17921965630154976,0.04536136753016856,-0.847879066399287,-0.5771333222055195,-0.8949692463450751,0.07188496405148534,-0.9647668539808268,-0.5498602551432862,-0.836505839123906,0.14508451936520417,-0.5989774196614861,-0.48655441371270847,-0.5241471268724631,-0.5690203031041118,undefined,1490687899453
903d185fccf839df,-0.5475571303231249,-0.7923607544475064,0.9783043932801643,0.9978654431392673,-0.9645012872708981,-1.9882792672297958,1.9777185408197864,-0.5566713937300645,-0.2816127736802879,0.011810217379298353,0.09504518468056655,-0.01738418849431329,-0.7477857620320856,-0.6771234162637467,-1.034969425224975,-0.09986674695166912,-0.884815300545653,-0.6119484358921334,-0.9159266397337412,0.02511523184900959,-0.6822099826306791,-0.4473636485605513,-0.4361421018792464,-0.48676631428670625,undefined,1490687900880
903d185fccf839df,-0.25233591824366264,-0.8493012677212656,1.0650736095109474,1.0802783922893069,-0.9095345246859442,-2.008722999405955,1.971007269810301,-0.6197400021651149,-0.2715693708274874,-0.4414923619108366,0.13982083294091077,-0.022889270009139234,-0.6346368092691622,-0.7771134455681012,-1.0423378727417218,-0.05541337789099937,-0.9473213421731618,-0.6987160960699909,-0.9297313481011414,0.10429403655679018,-0.722507254743523,-0.40743027047843744,-0.4842037649035595,-0.4393824236846521,undefined,1490687902380
903d185fccf839df,-0.3396549285583037,-0.8528233723239901,0.7658461576991515,0.7948789559681912,-0.7545599314543926,-2.0077796578493543,1.946894590853152,-0.7606499511806342,-0.2640569119274845,-0.37961909421415585,0.17487449342659503,-0.08359901467949582,-0.49537655971479505,-0.7095275751594956,-0.97602197761121,0.0840086075894206,-0.901750112188372,-0.7044410772374031,-0.9014152536268402,0.2674559629709389,-0.6852505852455533,-0.42838155699760067,-0.4979192344075895,-0.4671984795304844,undefined,1490687903886
903d185fccf839df,-0.2939163171901352,-0.8645636576724217,0.6465385171489434,0.6491637903382106,-0.8670546065958505,-2.0436359667903794,1.9725825467017868,-0.6574768746328381,-0.2523346811638263,0.11550664115238787,0.2039775513599692,-0.05317284435492663,-0.43445020053475936,-0.6900850953629758,-0.9897062057327376,-0.31809235889922516,-0.9773191148015393,-0.7020472250422589,-0.9027306534966518,0.09545533198041521,-0.7225106830299183,-0.39945452164755263,-0.39921724237595957,-0.45341899327004404,undefined,1490687905402
903d185fccf839df,-0.26342409364020813,-0.8428440588999419,0.7039592360494641,0.7370653852223082,-0.9176190913644743,-2.0436499418931646,1.9681855111204833,-0.6936513486752932,-0.247531625981356,0.27007613857928575,0.20674278905618423,-0.006591803126869776,-0.6215811608734403,-0.6817525734947844,-1.0286536446201942,-0.2695978412769272,-0.9559680329200632,-0.706758935298802,-0.9075164723932156,0.1292549200581096,-0.7176096465179683,-0.4032597249845537,-0.4102026672505155,-0.4353387512787232,undefined,1490687906919
903d185fccf839df,-0.35074300043862,-0.8686727626592714,0.6382439953936625,0.7006546821407464,-0.9977960976607848,-2.047157775748442,1.9539819211391352,-0.8048654047101705,-0.2139730827689819,0.223926575555532,0.22962072367042874,0.06762735086554372,-0.2342635918003565,-0.7289701132345009,-0.9739167174096164,-0.3989166868384222,-1.0462848376410092,-0.7388606273199484,-0.9168082370233458,-0.02245056501719778,-0.7600683353954225,-0.3962318480738596,-0.46039971383760575,-0.4438016778720826,undefined,1490687908428
903d185fccf839df,-0.2537220005526979,-0.9103508713678784,0.5667867845025887,0.527924932614995,-0.9303836402429152,-2.0565469385875854,2.003474864225823,-0.47065121730617054,-0.21069336191154267,0.09567005046913533,0.21365336105880184,0.10456144897526518,-0.8391753008021391,-0.7113792315765234,-1.020232559640417,-0.44539064431226677,-1.113767281131424,-0.708905803399221,-0.9478600844953742,-0.022465963422257013,-0.7559573723742183,-0.3969675858033922,-0.39717156110459345,-0.46053139491825895,undefined,1490687909902
903d185fccf839df,-0.22738774788659857,-0.9220911859443024,0.5170221953403973,0.5066115408812547,-0.9171973743950138,-2.0550212871331968,1.9514625652308752,-0.8067178453123497,-0.2323421393301859,-0.1379441352878567,0.17436628222584868,0.039595111515248034,-1.056769440730838,-0.6558292347224882,-1.0223378492909456,-0.36052513954672005,-0.998334282634778,-0.7271066831958456,-0.9223986889505131,0.036787251908742456,-0.7375707210169634,-0.40951554191120715,-0.5040432821771342,-0.49830413836743953,undefined,1490687911405
903d185fccf839df,-0.1054184051165637,-0.9085898117595181,0.47491322764263655,0.48812848782020213,-0.8597928999535109,-2.0402376058713605,1.9765219818151105,-0.6170586782858124,-0.24086526772623906,0.016717138514299144,0.16150256410605998,0.02198393677799132,-0.8739903631907309,-0.6817525540686226,-0.996022001061986,-0.2251444156868144,-0.9783747187873544,-0.6889190329540521,-0.9215940556813442,0.06067024176521903,-0.7186574015235683,-0.4004029107580799,-0.46270697405505834,-0.4727164740970186,undefined,1490687913349
903d185fccf839df,-0.30916246347050846,-0.8845221968365412,0.36772741130602576,0.36314403333137074,-0.8196581053121572,-2.0358889164604643,2.0108646245289297,-0.37841920476488694,-0.2624387518369464,0.0665565479534984,0.14243262014275462,-0.00013632710353353772,-0.8217677696078431,-0.7428576108291629,-0.9876009308066763,-0.13825829424337127,-0.9703817864779404,-0.700419660327659,-0.920474565769798,0.10551051576639331,-0.7091232558568562,-0.4439669367798567,-0.5538436146098543,-0.49133126932378945,undefined,1490687914503
903d185fccf839df,-0.23015977448303007,-0.8810000922338167,0.32242851661910243,0.3042389735397299,-0.8716214484889531,-2.0409014390724605,2.03242377113177,-0.24653382345615937,-0.25050487347832134,0.07123615704301767,0.1825002460947089,-0.03957841703121459,-0.691211285650624,-0.7854459739116799,-0.9570745842612307,-0.019042334218307484,-0.9298100204453105,-0.6799515870322648,-0.9334886339820665,0.1366923681451435,-0.7032083262722768,-0.43435019192005686,-0.49264138296771387,-0.45947140485150717,undefined,1490687915883
903d185fccf839df,-0.3341107718492115,-0.8393219835252097,0.3811255112796274,0.4529615862332703,-0.792802156362283,-2.0247365191451583,2.0215232373462397,-0.27185912178459715,-0.26792501406881214,-0.05178318511301904,0.13687281663178827,-0.058090310325703595,-0.7129706996434938,-0.8391443272994619,-0.9265482377157852,0.03955526679347237,-0.8855296887058224,-0.6738909613559239,-0.9028006209141907,0.10136833581260314,-0.6998883186898063,-0.4615565925410443,-0.4947024355577867,-0.48301474943619294,undefined,1490687917382
903d185fccf839df,-0.0014673387395627991,-0.7630099460854524,0.6586603413625407,0.715753563330985,-0.7191462835047563,-2.023078101005066,1.969708160517043,-0.5827547525528477,-0.3149407849467112,0.25412500110482517,0.07233540051730583,-0.07866267949963344,-0.8783422459893049,-0.7993334650309546,-0.9423377260389063,-0.049351414798424066,-0.8431354184280384,-0.6753792028432776,-0.8879953703714905,0.2260957454083781,-0.6825772172200587,-0.42598995180848864,-0.378274710356453,-0.4187392540926181,undefined,1490687918912
903d185fccf839df,-0.15531488385233078,-0.7418774061530824,0.7773308605805443,0.7822986657647217,-0.887615709120224,-2.0165539013003158,1.9053568037677542,-1.0568221465768854,-0.3364385093097957,0.3698528097996785,0.06843962587573778,-0.027259949334853928,-0.9262129567736186,-0.7872976109025459,-0.9497061441067178,0.11633830484743356,-0.8333492430453662,-0.6757211805782536,-0.887274698686032,0.15920490022058345,-0.6881815981811621,-0.43273508226897406,-0.4120011004541244,-0.42775644716107425,undefined,1490687920419
903d185fccf839df,-0.15531488385233078,-0.765358020691934,0.5399903304184359,0.5816305137371404,-0.9085162419974793,-2.0133092717788252,1.8742514538315305,-1.267743596312107,-0.2943181893682622,0.23577703540557715,0.059762752334492165,-0.035469953445550935,-0.9088054255793226,-0.8002593029525494,-0.9802325127388648,-0.2716184014253805,-0.9109639926310568,-0.7344592326988375,-0.8945863657585408,0.008916071816701463,-0.7418071961268511,-0.42367768952186885,-0.47162531673002916,-0.4043953954624003,undefined,1490687921899
903d185fccf839df,-0.4075695801708756,-0.8369738943047318,0.7345837550027814,0.6724725040733361,-0.9711149948337708,-2.0169917982732732,1.9695950700641707,-0.6632148645323711,-0.24789424300072196,0.06953218762438962,0.08491358405473017,0.044661879939683444,-0.7695451760249554,-0.7419317729075681,-0.9686535595433985,-0.10996980207642952,-0.914528303096763,-0.7332369743753175,-0.9019400134516271,0.04576455252355441,-0.7365215634683933,-0.412100279782726,-0.4175144046678852,-0.39613800550234957,undefined,1490687923418
903d185fccf839df,-0.2980744260956019,-0.8334518043160035,0.7403257252380537,0.719162945665073,-0.9189973660093478,-2.0142805647279265,2.0347248507337423,-0.21049079039600907,-0.28529665778794566,0.20258577059856644,0.07796140218226254,0.04523703871992529,-0.8957497771836007,-0.7937784504521603,-0.9602324966503225,-0.16452614146769506,-0.9276551435038803,-0.7645470469640369,-0.9295004513664002,-0.07902444926545307,-0.7749982912609199,-0.43455891577951783,-0.5694410866349046,-0.4396995101235608,undefined,1490687924900
903d185fccf839df,-0.44776403482995186,-0.7236799412113194,0.7735025415744303,0.7743970198155434,-0.9779858373506591,-1.9913888008086964,2.0240005017337763,-0.2850273443209374,-0.24968991810911312,0.2823643599689209,0.16496576831968424,0.03468833779782515,-0.5693585672905526,-0.7808167713529314,-0.9549693240596371,-0.17462921072481624,-0.9335982704491746,-0.7532364091077448,-0.940520428711264,-0.10808131667072113,-0.7800214298961317,-0.43849432152788137,-0.5477791388951795,-0.4431536404678886,undefined,1490687926413
903d185fccf839df,-0.44915001362275786,-0.6960902070716218,0.7939191416802579,0.8464827513322112,-0.9846201136429148,-1.98931344911997,1.9717199627855366,-0.6300017036574123,-0.2464379564633168,0.08403085532459141,0.19528373750948136,0.07057960330392846,-0.8174158868092692,-0.7919268005105199,-0.9054955620775109,-0.09178425197536204,-0.9690783174671914,-0.764642040432651,-0.9012123447289608,-0.12931577502780822,-0.7727548336295031,-0.4442390131377836,-0.5924065551923765,-0.4257742501635942,undefined,1490687927899
903d185fccf839df,-0.2897583808117172,-0.6931550736250303,0.9744760742740501,1.035961296417185,-0.899711689029513,-1.970749412477984,1.954994393901356,-0.7064005689128945,-0.22220527114647798,0.14675496460730428,0.24188854422883949,0.03363685908108769,-0.9436204879679144,-0.8030367908157847,-0.9065481995405416,-0.027124857459336103,-0.9645848786983653,-0.7800184268342489,-0.8987704577391176,-0.11119180388940367,-0.7793866318601884,-0.4381695343785601,-0.5991901344454454,-0.4108389195063128,undefined,1490687929405
903d185fccf839df,-0.07215398244315643,-0.7630099899274408,0.9744760742740501,1.053203614792911,-0.7930078737419483,-1.99741920206564,1.9155367913071584,-0.9518008864046206,-0.25522961618133505,0.17078377342526138,0.2183752002083924,0.03900425501082582,-0.8217677696078431,-0.7752617826756862,-0.8907586964929527,-0.1079491571338116,-0.9349650510849673,-0.7236488952503697,-0.8872537076845154,0.008392523594543051,-0.7310772680095492,-0.43541278452386895,-0.5487276458455556,-0.39901832453188296,undefined,1490687930905
903d185fccf839df,-0.13175262327725326,-0.7037213728192075,1.2494593693847527,1.240714761733186,-0.6908914722316905,-1.9829127000446687,1.9951410144307251,-0.3654917804912452,-0.26856733876105837,0.1588858699723056,0.16810484080789276,0.022420193360789223,-0.8304715352049912,-0.7234150921803194,-0.8928639566945463,-0.10390795204274036,-0.9395699360190788,-0.7091717853892818,-0.8481485317559372,0.05723639302134479,-0.6998095911782335,-0.4470369830244238,-0.5649652090135191,-0.42960507270115833,undefined,1490687932426
903d185fccf839df,-0.3923233993850926,-0.8387349977550806,1.2800836342011206,1.3824054838573707,-0.7529039309203368,-2.0111244450440973,1.9517018715846972,-0.6978550548402137,-0.2292954761805144,0.16700602819696597,0.15673061502210375,-0.060906812777828716,-0.8000083556149733,-0.714156751816695,-0.8928639935057153,-0.07764010481841656,-0.9596923353024489,-0.6576342900028893,-0.8580350254879796,0.12848500268607585,-0.666611863396788,-0.44433258742442966,-0.5086991584643511,-0.5015916797181192,undefined,1490687933904
903d185fccf839df,-0.5891375292695975,-0.781794455253329,1.0886801366059375,1.16658721157178,-0.9062328142181483,-2.004961278655783,1.9463475938277577,-0.750302418669416,-0.2816708666007434,0.036106699445927176,0.16110154640024907,-0.10618933860029067,-0.42574643493761144,-0.6808267161470277,-0.9223377099503641,-0.06551640475103823,-0.9249110497538445,-0.6584829049594965,-0.8591335248812568,0.024853464563321437,-0.6800120539656398,-0.4656146821897358,-0.5131611300801395,-0.5250179425852993,undefined,1490687935395
903d185fccf839df,-0.4214297476584428,-0.7530307057313849,0.8928106903985372,0.9206327558790358,-0.9719481351395861,-1.9993571295171186,1.9357415865074166,-0.8481158482623118,-0.33115780675337453,-0.12382752154994225,0.13339982969168285,-0.014924781292046389,-0.4779690285204991,-0.6437933805940795,-0.9486535360926224,-0.04935155612203175,-0.9371466385969438,-0.6606044422485858,-0.8972871351667813,-0.043300057391696095,-0.7021485936714131,-0.46522989243273427,-0.532618826800523,-0.535540468654652,undefined,1490687937006
903d185fccf839df,-0.5267668618390692,-0.6955031920735004,0.8877066039063176,0.9447501748016311,-1.0595617052539752,-1.9751167369927234,1.9830807242237045,-0.5404569429959317,-0.32437232508981384,-0.2333065063910933,0.16596213585012504,-0.03929461735837778,-0.7782489416221035,-0.6280542006808406,-0.9612851488378208,-0.04328970608834259,-0.9451015731045544,-0.6734856492233212,-0.9077403704574935,-0.0642265447801243,-0.7150750333753966,-0.45735185262254935,-0.5455200523551392,-0.5600546768179537,undefined,1490687938436
903d185fccf839df,-0.32718070535813276,-0.783555485633697,0.6752488765992037,0.7003976631418485,-0.955089877819569,-1.9779560792010829,2.0581275016110987,-0.031685008440693,-0.3184671374127662,-0.32384827232977303,0.13870468881004672,0.06617376051356542,-0.7738970588235294,-0.6632358992429229,-0.9012850490365575,-0.045310322766238975,-0.9715518603364478,-0.7050997045093318,-0.885028721825732,-0.10995992638243966,-0.7318966846405766,-0.4637545928079779,-0.5852652178156605,-0.5039328743642782,undefined,1490687939917
903d185fccf839df,-0.5226088219444219,-0.7747502460478801,0.8309235146119003,0.8131325359381644,-1.0366348826762184,-2.018380025316452,2.073438220519011,0.01976991235810678,-0.24651817429095205,-0.2943023058077792,0.2269265565930483,-0.010948952218643815,-0.9566761363636364,-0.7002692412712586,-0.9212850798495673,-0.13421708915230002,-0.9794778795866669,-0.7491073303228485,-0.8845949204872884,-0.19970206762808085,-0.766604833765689,-0.46632524167497275,-0.6148297744069624,-0.48730196990971997,undefined,1490687941406
903d185fccf839df,-0.5239948007372279,-0.7647709910798165,0.6988551495572445,0.6707899888191338,-1.1383501449067324,-2.0399790608894444,2.0561603991925956,-0.1368335236533466,-0.2575260258891966,-0.5217209767123767,0.20100664121281894,0.018586763284067505,-0.9610280191622104,-0.6947142461186261,-0.9128640095942576,-0.10996977381170799,-0.9607232606425392,-0.7388796262561772,-0.8887650195434567,-0.12869983683301228,-0.7535204691525235,-0.4593920631671989,-0.6046951448365133,-0.4499918158964652,undefined,1490687942907
903d185fccf839df,-0.6196297873249343,-0.7301371061906546,0.8755845255557709,0.8681445550770139,-1.1911363430043864,-2.024857639323544,2.018593616384824,-0.3808518254624142,-0.28806163743029073,-0.4747574764537324,0.1558448120165714,-0.03170451304726237,-0.9523242535650625,-0.7521159317666254,-0.9160219293455832,-0.16250559545160254,-0.9296679770839651,-0.7958127896557076,-0.9074045232295598,-0.19589865105089319,-0.798865975493655,-0.47188969799057195,-0.584740720877102,-0.44001029570554717,undefined,1490687944413
903d185fccf839df,-0.568347226280132,-0.6890459978661728,0.9546978661851742,0.9174718152224028,-1.2076346046230197,-1.9580271092245913,2.0266355710894803,-0.277910407712894,-0.2982666352341031,-0.4293456768094009,0.1283083909642393,0.011514471170975833,-0.9523242535650625,-0.7623001035764573,-0.8876008135527961,-0.22514437328973208,-0.9230629574653113,-0.8156159051937756,-0.9082441406265169,-0.26374420166030704,-0.814998623489203,-0.4872671840474308,-0.5923943433420065,-0.44838614783769226,undefined,1490687945907
903d185fccf839df,-0.7027907232395184,-0.726028001203805,0.8736703660527139,0.8071434103695745,-1.205248318602973,-1.950312668924172,2.0052710205152544,-0.4168103685920465,-0.2533445347320838,-0.20213873874709246,0.1097359606174366,-0.09543341733198041,-0.9088054255793226,-0.8076659674729841,-0.9476008986295918,-0.19685588112279034,-0.9385151785345305,-0.8391237924730645,-0.944599570272053,-0.1982238196923224,-0.8266833204081692,-0.4941089767635546,-0.5266552452334476,-0.5040279299854505,undefined,1490687947444
903d185fccf839df,-0.6251739095286168,-0.7741632895057433,0.903018609246027,0.8900764992790559,-1.1932037652303689,-1.932177213239661,2.012815940793999,-0.36281367512870505,-0.21336964283416063,-0.03757900367559725,0.2071668954087856,-0.2333954837505429,-0.02102133467023172,-0.8446993418782561,-0.9591798665495257,-0.19685588112279034,-0.9249016183700381,-0.8607127964228637,-0.9447045225820128,-0.1657331004199239,-0.8292917465702101,-0.4929029826503475,-0.5428141624851814,-0.49957441282916276,undefined,1490687948917
903d185fccf839df,-0.35351499252964175,-0.8205374743573329,0.9572496552943345,0.9885746434094618,-0.9077036762245585,-1.947813394675768,1.9655925123350668,-0.6336538565887864,-0.19153503104929948,0.1780449665669481,0.24681594251043842,-0.33853262468659406,1.462970699643494,-0.8345151506422624,-0.938127205635719,0.05167883966960378,-0.8374364866593662,-0.8712698132119496,-0.9172070556348082,0.1050023676455452,-0.7621947818730478,-0.46971600852305234,-0.5647473620179585,-0.48917619427715847,undefined,1490687950412
903d185fccf839df,-0.2953024685099899,-0.7594878853247163,0.8940869661585416,0.913627421049297,-1.0174932092659148,-1.9661864335175079,1.9514099607814275,-0.7473332421542355,-0.1612074648245907,0.011327629692489441,0.24806697903994293,-0.24621777598076752,0.35324058600713015,-0.8382184764270925,-0.8623376101491008,0.2880899875858665,-0.7816110378738406,-0.8709531659727133,-0.8588816402708173,0.49532216464889,-0.6653083106203428,-0.4529087714636416,-0.5704382364104381,-0.4540911943711276,undefined,1490687951900
903d185fccf839df,-0.3673752290280285,-0.6538250833648934,0.777330606443595,0.7660261627771345,-0.9761755662829129,-1.9602631775898585,1.967875171266294,-0.6212618161632676,-0.17737519364885432,-0.1483281487375149,0.33055187970198013,-0.18405136135084202,-0.5519510360962567,-0.7595226027624474,-0.9307587581189725,0.23151294672253997,-0.7722165122403768,-0.8487308664149615,-0.8917526570965699,0.5867889290785911,-0.6504478572369401,-0.45679466460607393,-0.5589324684373692,-0.44046368214546283,undefined,1490687953394
903d185fccf839df,-0.5531011145051685,-0.696677207455747,0.8436839849793987,0.8374677574302675,-1.1922472000990136,-1.978708422885406,1.973337278821656,-0.6548015701211919,-0.22166290605057792,-0.3926660766605595,0.33246401924193175,-0.24003658371186143,-0.19509664661319073,-0.7447092737215779,-0.9412850885758758,0.2032244262908767,-0.8565257436020048,-0.837610217107068,-0.9034233378284964,0.5049615916194263,-0.6662550562705611,-0.45913220440171665,-0.6204814778322284,-0.39968968520129605,undefined,1490687954908
903d185fccf839df,-0.5087486889622644,-0.7330721738742635,1.0829384205076147,1.0307474337959865,-1.1141684756584622,-2.0152239061685524,2.003914041928013,-0.4717508286349458,-0.2354066110580742,-0.28087861632086525,0.34757678918717255,-0.14550742340366263,0.8145401626559715,-0.7391542720935582,-0.946548268528795,0.09411154965529485,-0.8701982868543401,-0.8308339674553087,-0.9157447218557297,0.49701599434802174,-0.6711175652332139,-0.4591544658029181,-0.6189320598794097,-0.38722419725009705,undefined,1490687956423
903d185fccf839df,-0.5586451676980315,-0.7677060952984157,0.9170551012365802,0.9376839539272647,-1.1237444593792185,-1.9978477818515885,1.9659001967215093,-0.7104050116791679,-0.25601027259812936,-0.28828818935078515,0.3054761804138949,-0.2776014985450588,0.10953514928698754,-0.7095275751594956,-0.9676009073559003,-0.14634070442551372,-0.9484985820553609,-0.8129813994778906,-0.9705157567866526,0.009501207426048134,-0.786223126868928,-0.4762904602788821,-0.6112435004787323,-0.4799252002805286,undefined,1490687957905
903d185fccf839df,-0.47271223969242565,-0.6737835933010206,0.9706480094048855,0.9907271012470807,-1.0782919606913208,-1.9689279469778849,1.8921078455377311,-1.169836864452757,-0.2644957765768174,-0.33904098689121936,0.3794451434949229,-0.24896306646011634,-0.27778241978609625,-0.7123050630227309,-1.0065483167944218,-0.11603156731595408,-0.9291823164547385,-0.8139820042522552,-0.9827951602422447,-0.10084405091886549,-0.8152016462518107,-0.47463675321604204,-0.6022638601573086,-0.4478009642419214,undefined,1490687959400
903d185fccf839df,-0.3160925989724067,-0.6966772220697433,0.872394344429659,0.9078598700177176,-0.9424796169013575,-1.9884120324730636,1.8655205105223132,-1.3147304770237276,-0.2850848278046897,-0.28835309154664357,0.30084559142549044,-0.038813700166885,0.07036820409982177,-0.7474867745355878,-0.959179859187292,0.07390546767049558,-0.8925657637358678,-0.8325438624419879,-0.946915514861862,0.08563112122784558,-0.7689701691145179,-0.4686303528736639,-0.6607812854213948,-0.41078485751180827,undefined,1490687960969
903d185fccf839df,-0.36044505902072055,-0.6068638104452015,1.1218569529423141,1.0662603071493328,-0.9295196378326787,-1.955197080575859,1.8803052813077576,-1.1775677749397622,-0.2514379306742902,-0.2523469213372545,0.2924987938518755,-0.179391694840335,-0.4866727941176471,-0.8076659674729841,-0.9086534965533041,0.027431538461372515,-0.8732266405739406,-0.8575336584698098,-0.9372949001511133,0.2176727905124209,-0.7452954137778688,-0.47160167198318054,-0.6927630207378435,-0.3984027909540803,undefined,1490687962422
903d185fccf839df,-0.2980744260956019,-0.6156690646450147,1.181829969225894,1.0660858252969878,-0.9435904712712749,-1.9420811351521376,1.8974463539015851,-1.0470195610807111,-0.3057592333551734,-0.4471804395853249,0.3011948452502726,-0.16925899060105143,-0.3909313725490196,-0.7845201295146979,-0.913916654419522,0.255760262063132,-0.8354516267990113,-0.8341081001061169,-0.9459499551076901,0.20700166749504903,-0.7402079163189766,-0.4666687945423984,-0.6864782672571562,-0.3920114027447582,undefined,1490687963907
903d185fccf839df,-0.31332064138679466,-0.5845572259025927,1.4223601722402155,1.5169775360209867,-1.082467951304318,-1.9262819067782444,1.9745101889743129,-0.5562711516750983,-0.24879541611391642,-0.4835933068385231,0.41950937111080483,-0.1965790167524449,0.37500000000000006,-0.7511901067958051,-0.9149692992447864,0.41942939329581475,-0.8426131321909529,-0.8004928352603036,-0.9469854831541407,0.4212864355641049,-0.6823654678027475,-0.47879353872743885,-0.6708305726979276,-0.43185787048866214,undefined,1490687965417
903d185fccf839df,-0.10403239181834795,-0.5898403754996814,1.3285727100141558,1.3838960554358237,-0.8875231334237257,-1.9648494500515221,1.9304346378801698,-0.8311249057334893,-0.33748467401232973,-0.5028038188437672,0.34427781549234027,-0.39357930167608696,0.37064811720142604,-0.759522615713222,-0.9476009059918256,0.4477179985216426,-0.7909031137741406,-0.784286832384321,-0.9435640425681578,0.5385763967362881,-0.6482373544115813,-0.469416108887644,-0.6077974988249107,-0.4731452953671819,undefined,1490687966916
903d185fccf839df,0.16069645868954838,-0.6344535738128915,1.4995593533665617,1.4450571320284809,-0.6082047463435152,-1.9683293335680376,1.9421740962547125,-0.6494244932657945,-0.2759331995896293,-0.07339031228799517,0.1827845597637118,-0.32196126766138256,0.8493552250445633,-0.6910109009076342,-0.927600867816582,0.22545115321829387,-0.7782240017713119,-0.7423437463369773,-0.9503439515919618,0.3030571762066366,-0.6869976958157055,-0.4577934710866533,-0.5781812858370884,-0.4849472967223591,undefined,1490687968415
903d185fccf839df,0.3034558629111806,-0.6080378550554405,1.2628572152214048,1.2312917233432235,-0.35986687919128896,-1.9422628161069568,1.8893544371212068,-0.8913952653019966,-0.1809501025929352,0.18541915484524396,0.18184400662584616,-0.24697488163173675,0.018145610516934058,-0.6660134130077073,-0.8865481760897654,0.15877111375965,-0.7692524734812953,-0.6867658330671187,-0.9114906597722242,0.12432741965580515,-0.6843612588495864,-0.44945282380135454,-0.5532595655458771,-0.5133408894425664,undefined,1490687969925
903d185fccf839df,0.511358168192231,-0.5557934471526562,1.5104056642310029,1.5657980995414242,-0.28642700796208853,-1.9073405346065897,1.972700880524998,-0.27548232298333497,-0.19833099384872444,0.13152372418708982,0.23702911231482465,-0.06283697342073533,-0.7086188168449198,-0.6104633449244122,-0.8623376469602697,0.13048250853382212,-0.79152317432384,-0.6420869153732883,-0.8864280830345719,0.10481758865609389,-0.6551204876324976,-0.4599286958282456,-0.5652033088471684,-0.5205033231308136,undefined,1490687971417
903d185fccf839df,0.18148658915196517,-0.32568336329312597,1.3432468316108124,1.4250747366560297,-0.5049054974898695,-1.822374545643787,1.9507945988174353,-0.3779440270884469,-0.32038779335665735,-0.33013206590122157,0.23261603966090016,-0.01175322198197137,-0.8609347147950089,-0.5725041455483201,-0.7181269035037798,-0.05137217279992814,-0.7075644931607467,-0.5966037121437462,-0.743581192243618,-0.009562066649836621,-0.6072242261522544,-0.3523086630759224,-0.5458575656574151,-0.4226591617466186,undefined,1490687972907
903d185fccf839df,-0.18857923751491856,-0.38614590809962884,1.4402247290999335,1.3676634643098082,-0.7038103034869063,-1.8371419232363637,1.9689665585590994,-0.33760862749260967,-0.42614943778276737,-0.6848710337847542,0.15081326660322228,-0.003565656492700785,-0.9218610739750446,-0.5299158213181266,-0.7012847998043293,0.033493360230340136,-0.7689906599626274,-0.5384166253590356,-0.6908742159157257,0.06114759522991807,-0.550821429362778,-0.39007846197565715,-0.59567223385456,-0.4239338375473716,undefined,1490687974460
903d185fccf839df,-0.46578220770675666,-0.541705101811739,1.3808893424224569,1.3601902379321806,-0.7567507863539588,-1.886461232914032,2.009031655704856,-0.14559220451833788,-0.40433435553593433,-0.7361307045967344,0.11301930651756201,-0.06148079758660981,-0.7086188168449198,-0.5206574809545023,-0.7076006024958116,-0.03722788431937497,-0.7728785999374512,-0.5428433526351859,-0.7045669748931389,0.005020260595454953,-0.5663132824242733,-0.38967201882109986,-0.5566441334459963,-0.4416314036926798,undefined,1490687975907
903d185fccf839df,-0.4685541997977784,-0.6784797132859917,1.2909299450655618,1.220999985852799,-0.758159927742462,-1.9715623170103194,1.9821971128787246,-0.43379501801072734,-0.35136356265842983,-0.6089222624303454,0.17562136681372537,-0.07776958152617915,-0.7347301136363636,-0.5086216656784172,-0.7676006433992046,-0.061475199659967,-0.7883479631746878,-0.5415894292167858,-0.7160767293602767,0.08390649731682108,-0.5578237678204259,-0.3702086240041691,-0.5694252531846862,-0.4558234604495734,undefined,1490687977418
903d185fccf839df,-0.34381293394754125,-0.7518566465071498,0.9834084797723839,0.9709651521065801,-0.8363517969289782,-1.9926139809969925,1.9542343896042977,-0.6678623243894829,-0.30371364719550076,-0.5185015529550443,0.18405859606558875,-0.10175448147937591,-0.7216744652406417,-0.55583916656581,-0.7928638688896013,-0.1503819377813065,-0.7739464189211124,-0.5939122093810982,-0.7228216565134882,-0.007714252927036207,-0.5998806086903221,-0.3404563317023231,-0.5731211072648146,-0.4564195266486228,undefined,1490687978912
903d185fccf839df,-0.4810283194817202,-0.6409107095642343,0.6733349712330962,0.6998759808745175,-1.0242303409721498,-1.9834647289650789,1.967393935564078,-0.6334988206684824,-0.27265254293447727,-0.5923816696100926,0.24163150915291715,-0.0014740162234574933,-0.7608414104278075,-0.6058341941687618,-0.8328639305156209,-0.15038196604602805,-0.8668090364645579,-0.6455003692858264,-0.8130315393483502,-0.08446010450629818,-0.6670286461558984,-0.46241846849671264,-0.5916881297640648,-0.5224336967881115,undefined,1490687980417
903d185fccf839df,-0.3479709738421885,-0.6843498778812017,0.781158925449709,0.7767132577543121,-1.0663605539291667,-1.9795818875653741,1.9742787662695118,-0.6033375437944513,-0.31856180333359946,-0.7749873814788937,0.20618336840305868,0.02701683243650196,-0.49102467691622104,-0.6410158797800697,-0.8718113252296749,-0.2695978130122057,-0.8944885959010185,-0.6965755597671592,-0.8587347086493312,-0.24243275644745002,-0.7348242319746182,-0.4616014366670606,-0.5821413594677166,-0.5181896633335369,undefined,1490687981902
903d185fccf839df,-0.591909555866029,-0.7383552869363618,0.9304537094840806,0.9410054019409276,-1.2154517306232793,-2.009007166047808,1.9437177956017206,-0.8568008942700512,-0.30251546254394085,-0.6742010214316544,0.2052412058863424,0.0650312114993012,-0.4605614973262032,-0.6660133871061583,-0.874969230256533,-0.279700811607523,-0.8825728848321565,-0.7092921112859323,-0.8476727505676657,-0.2880429514824061,-0.7433635346451286,-0.4560399682064675,-0.6044095203830464,-0.549820156211985,undefined,1490687983413
903d185fccf839df,-0.5336968593193285,-0.789425635614911,0.880688357911041,0.857152244186117,-1.171459802657298,-2.031640383938632,1.9687009515518366,-0.7176742665363051,-0.24436083479974172,-0.3516032633312772,0.21118018069857686,0.10614371305712263,-0.9436204879679144,-0.6910109073830215,-0.8833902563384398,-0.2029177311564795,-0.8981686578582049,-0.7513998545277513,-0.8564817347762914,-0.25456672988403367,-0.7655273828688447,-0.46258885937804767,-0.5931843236316923,-0.4747797662292008,undefined,1490687984900
903d185fccf839df,-0.5558731411016,-0.8123192789976297,0.7550001009716597,0.7433631940519702,-1.1495924127240271,-2.042683307088166,1.9789624499045915,-0.6557936620245548,-0.1997072140815649,-0.28060359774913474,0.18300015279447474,-0.06031065554440017,-0.9305648395721926,-0.6873075621720295,-0.8865481613652979,-0.06955763810683101,-0.8805091487833914,-0.7589170596583421,-0.8521087274951203,-0.2064773846475824,-0.7623769869772331,-0.4422363052126326,-0.591299275716948,-0.4542658512318102,undefined,1490687986406
903d185fccf839df,-0.569733343094577,-0.8346258635402386,0.6503663278811587,0.6569214420724732,-1.0951296485437627,-2.0335317265223964,1.9620370138621304,-0.7568130165453313,-0.22846933666542465,-0.23715543682754764,0.12349720206054389,-0.016890023111774587,-0.8739903631907309,-0.7076759187424678,-0.8960218911703396,-0.2069589079828292,-0.9322706483635573,-0.766719246119399,-0.8791094200320432,-0.2187191496120434,-0.783788297754095,-0.43447145432415657,-0.5450194503443079,-0.46684322252617694,undefined,1490687987983
903d185fccf839df,-0.47825625837987895,-0.8551714177024795,0.6108094034295076,0.6107768796081168,-1.1109696214788731,-2.038916927376632,1.9500503612946583,-0.8382470812758329,-0.28239557115909625,-0.41267451018658363,0.12761800128661574,0.029312859416060984,-0.8000083556149733,-0.7086017501886753,-0.8897060737543897,-0.13219645834204286,-0.9426304621633936,-0.787104992658497,-0.8643811326962093,-0.2176104620918654,-0.7830500780227163,-0.4376189220726866,-0.5809955548314889,-0.4653706882825461,undefined,1490687989403
903d185fccf839df,-0.4311318752513628,-0.8498882681053909,0.7626564848469384,0.7850923055745392,-1.0528965728588615,-2.044013302787118,1.9091147976311522,-1.1062415868932494,-0.2622992407351887,-0.20618717707837964,0.1281379298843681,-0.002668451999280889,-0.8696384803921569,-0.6789750597299999,-0.8749692008075978,-0.1827116774364018,-0.9145768081345599,-0.7828935855338179,-0.8494289480179107,-0.157756704790235,-0.7701866514900229,-0.4468115522787626,-0.5634929235014413,-0.3974219459497671,undefined,1490687990916
903d185fccf839df,-0.35074296593321025,-0.8246465647301865,0.7492581307363874,0.8025886908584164,-0.9653652889429423,-2.013327905377262,1.9524224471614322,-0.7740924787092024,-0.261593942631825,-0.11621650676888384,0.21236442467064368,0.0822515460219344,-0.8957497771836007,-0.5845399996767288,-0.845495521174118,-0.0372279125840965,-0.8429737945648159,-0.7232372546144958,-0.8203921826717203,-0.0504295414970098,-0.7086257859493154,-0.4011058602662882,-0.5128346043806944,-0.4446190010279954,undefined,1490687992409
903d185fccf839df,-0.35905901121709505,-0.7583138553284736,0.7352216387458341,0.7537201753962826,-1.0223377688500643,-2.000908402077846,1.9560410504422783,-0.7422926461309355,-0.2968027122989779,-0.21288488439745773,0.15971311501623617,0.026956644352518704,-0.7782489416221035,-0.6558292217717137,-0.8654955151759588,-0.12411400576281809,-0.9053037933979146,-0.7151564184710704,-0.8099459443203432,-0.06202457050073187,-0.7033495427531544,-0.40793029722222424,-0.5279072366909666,-0.46385635365565864,undefined,1490687995615
903d185fccf839df,-0.4228157264512489,-0.750095630740778,0.7792442576727532,0.8071510788744352,-1.067656553902573,-1.9707890093960951,2.009452409069973,-0.36900971426925605,-0.31802512768246877,-0.2335695772148989,0.16183190910208536,0.04486082415263864,-0.7564895276292335,-0.6474967193296841,-0.8886534510158267,-0.017021774069854168,-0.9045422798489056,-0.7014519279157975,-0.813479333507212,-0.03242875692596425,-0.6943430397380052,-0.3978792265180442,-0.5042548115425102,-0.47579937132547584,undefined,1490687996913
903d185fccf839df,-0.46439626341936036,-0.7436384657614427,0.7179957280400172,0.7350514368705054,-1.115320475867328,-2.003950388532611,1.981355563723857,-0.5900585376041347,-0.30236178733525576,-0.3424663550440657,0.1449896158518555,-0.011742628000800054,-0.7216744652406417,-0.6539775524039113,-0.9086534597421352,-0.10794918539853314,-0.8933867466093395,-0.7247761596789521,-0.8343858043149677,-0.024667940771055975,-0.7132939259421338,-0.38526704732600126,-0.5151579917242046,-0.4668186514701271,undefined,1490687998431
903d185fccf839df,-0.4325178195387591,-0.7800333956449688,0.7039592360494641,0.724856854135004,-1.0505000099260646,-2.023504352267125,1.98400378262064,-0.5770962869361123,-0.26009496261216025,-0.13982769075522058,0.1504102753843827,-0.012339526575080991,-0.847879066399287,-0.7058242299485037,-0.93075877284344,-0.07157824065236662,-0.9694903827090074,-0.745054244758148,-0.8621701404836476,-0.07509784823448888,-0.7409292940295695,-0.37922388464007245,-0.5030625552631387,-0.47877637047337174,undefined,1490687999903
903d185fccf839df,-0.5129066253406824,-0.723092926213198,0.45832520067987237,0.5084894751573862,-1.0126692121815255,-1.986965576476731,2.0003716992812866,-0.4189648753507261,-0.29348685137014935,-0.21071556895780544,0.08656068529008848,-0.04310009134312277,-0.8130640040106952,-0.7465609366139929,-0.9497061514689517,-0.18473222345249432,-0.9717042532046718,-0.7829949119627196,-0.8823979204834388,-0.2401999805249698,-0.7983983663831234,-0.42153589134882347,-0.5622261439432198,-0.4794879288676513,undefined,1490688001418
903d185fccf839df,-0.6071556331355829,-0.7477475415203001,0.49915738434373,0.4991909030982249,-1.0794028143350491,-1.9902404864292493,1.9462161057496188,-0.8025481683882663,-0.2897746938590238,-0.08234134167421299,0.13662475633987467,-0.01651820799311158,-0.9305648395721926,-0.7150825767875153,-0.9160218998966481,-0.19079414414798734,-0.9378094045033296,-0.7496329646037787,-0.8753591279401666,-0.1563554452449499,-0.7657039845594503,-0.4128024447695679,-0.5105828902827089,-0.47601554219250647,undefined,1490688002931
903d185fccf839df,-0.6265598538160131,-0.7459865257539282,0.5674246682456414,0.5571116313348876,-1.0994187796096062,-1.9855726912921683,1.938397692195786,-0.867872978293882,-0.27073666322235845,0.04446922937837914,0.14006120025250762,-0.08920590231615257,-0.9523242535650625,-0.728044249411357,-0.9023376938618218,-0.18473222345249432,-0.9421512659453651,-0.7298551811338637,-0.8667530507208973,-0.17492597118013592,-0.7566550750629194,-0.4051399949322185,-0.5398217365004071,-0.4384920411982407,undefined,1490688004456
903d185fccf839df,-0.5628032766034983,-0.7682931102965371,0.6203799468078435,0.6637667447921536,-1.0385583073862463,-1.9546473822551045,1.9387658594430877,-0.8106915600562905,-0.2710566912567853,0.017230587517732262,0.08310717231785919,-0.024817301181994298,-0.7216744652406417,-0.733599257514764,-0.9065482216272429,-0.1039078955132973,-0.9465311130643518,-0.7015975865671474,-0.8454617555779581,-0.12674423675186103,-0.7289495169268646,-0.41927879407373064,-0.5155253526930349,-0.4526771595736602,undefined,1490688005903
903d185fccf839df,-0.40202549247260283,-0.7195708216104735,0.7830725766788672,0.7834529376020476,-0.9460898921347068,-1.9300948718576334,2.0178388706471715,-0.24230725957320734,-0.3127619396948271,0.09984686363585313,0.03967151351051662,-0.044249634343097095,-0.7651932932263815,-0.7271184179651495,-0.9160218998966481,-0.22716507476179307,-0.9376099748986075,-0.6924274841665772,-0.8293061200466944,-0.14388270454115612,-0.7235346635002042,-0.42454299933225326,-0.4893985690250038,-0.4696460883884104,undefined,1490688007408
903d185fccf839df,-0.24679186505079964,-0.6209521704001149,0.6497281900011564,0.7142169891949263,-0.9021082542549071,-1.891983859319292,1.958897034811668,-0.5710583381029987,-0.33847257012336623,0.17783521918433207,-0.040560301766004024,-0.03746266207437499,-0.9827874331550802,-0.716934278532254,-0.8644428997996296,-0.1443201442770604,-0.9027572126483033,-0.6729726810069191,-0.8303346518144524,-0.0020014294645292812,-0.6879793650713087,-0.4301477225759096,-0.4687599637440587,-0.44717424779201553,undefined,1490688008924
903d185fccf839df,-0.2911443941099329,-0.7412903619269686,0.7594660495838771,0.8126745703269291,-0.9132373818394128,-1.9241576406967265,1.9247621533803683,-0.8575384844281684,-0.3289412806824271,0.4267777985865973,-0.0017715078087796915,0.10681080940507028,-0.9697317847593583,-0.7123050759735055,-0.8149691599042047,-0.0028775986481871427,-0.8338196626505283,-0.668393963785668,-0.8273330209148536,0.056004516402893105,-0.6739628096501943,-0.4207693828646105,-0.37798056643303807,-0.3596845231597684,undefined,1490688010401
903d185fccf839df,-0.37707732211553874,-0.684349892495198,0.5074519060990109,0.6179574960886095,-1.0111263641694597,-1.945519094080608,1.9023877593236238,-1.0384705516131334,-0.33948291020279536,0.12172910674322068,0.0011527178251336608,0.0238237860559734,-0.6346368092691622,-0.6632358733413739,-0.8497060415773052,-0.1524025544592029,-0.8149369678326305,-0.6901856227747171,-0.8527734249810671,0.010887074341604805,-0.7007112697077703,-0.40865779161595966,-0.3822168588777609,-0.3739315114663863,undefined,1490688011917
903d185fccf839df,-0.5018186224711857,-0.6632173233348356,0.5635968575134261,0.6466008226035522,-0.9900921128215561,-1.9728201059252075,1.8984772358118123,-1.0851962457328204,-0.30532112537869527,-0.21756921249361422,0.012525617348187785,0.09180203583128742,-0.4605614973262032,-0.5641716754832269,-0.8633902696988328,-0.10188736362956552,-0.7733550352596057,-0.6662407635554612,-0.8672218395576297,0.13325852018208317,-0.665546731186696,-0.42176082577145313,-0.4170353346779958,-0.3920293935718971,undefined,1490688013417
903d185fccf839df,-0.5073627101694584,-0.7160487389287432,0.6293120981692277,0.6583879032902802,-1.070217690454628,-1.9961078400212995,1.9323149510230033,-0.8948170123679904,-0.24853256855724815,-0.251148762047461,0.03696324909308455,0.11649555744551457,-0.6215811608734403,-0.5743558408176714,-0.869706035579146,0.03147278594952606,-0.7640961213360583,-0.6589515451834631,-0.8942505197417853,0.05772914377373124,-0.6795369773278408,-0.3972981362097388,-0.4263604396090759,-0.37611767763745185,undefined,1490688014897
903d185fccf839df,-0.52676675832284,-0.7377682865522365,0.9240730930949074,0.8881859981970873,-1.0399983132317834,-1.9669387765562685,1.9364989678099027,-0.8321617891954228,-0.28460441779851164,-0.08683890272225753,-0.015034142141688063,0.023973280619440488,-0.8826941287878788,-0.5715783400036616,-0.8623376248735684,0.025410978312919198,-0.7851880301497108,-0.6752335420104814,-0.879025457695934,-0.03164343505044508,-0.6975668144639557,-0.38991704309035247,-0.5443734614423624,-0.4378234791141153,undefined,1490688016406
903d185fccf839df,-0.34797093933677875,-0.734246181949512,0.9285395499810236,0.996671359989632,-0.9560773095885261,-1.9813311460245435,1.9110687505085762,-0.9862171747365704,-0.30278594757288824,-0.08624270013389598,0.04284162126470138,0.013042797020618422,-1.013250612745098,-0.5104732702923468,-0.8812850108613138,0.1547299369333003,-0.7419400713810466,-0.6498384367125131,-0.8579230756881495,0.10213825578286256,-0.6508017721841769,-0.42097574169792445,-0.5839944226100501,-0.4613139566523751,undefined,1490688017942
903d185fccf839df,-0.38539336739942354,-0.7031343870490785,1.0331733230715245,1.0805992336281736,-0.8177758233762794,-1.969179505150465,1.8912347497402793,-1.0787763578071947,-0.3154234462624787,-0.04375779959177027,0.05864800050834563,0.02673548542506935,-0.9479723707664884,-0.4289999022890791,-0.816021775280534,0.23151287606073612,-0.7325927413450449,-0.5882568920613537,-0.8315101155829547,0.1376624662368782,-0.6045075528231115,-0.4100746804538311,-0.5996811949379696,-0.4372701740272298,undefined,1490688019410
903d185fccf839df,-0.23293176657405185,-0.7360072269438762,0.9789425311601665,1.07321374328951,-0.7733210408120276,-1.9966435649349457,1.914295524072318,-0.9407583645463037,-0.2290054487351888,-0.2477432606315814,0.08676960555669681,0.03895495730842707,-0.9349167223707665,-0.35863655696801267,-0.7918112314265706,0.22545120974773694,-0.7111490476699743,-0.5248324598533033,-0.8178243534775888,0.1517058492781677,-0.5722483877188922,-0.38656923918372055,-0.5895254333909826,-0.39357093762908996,undefined,1490688020911
903d185fccf839df,-0.31332060688138497,-0.7336592107933791,0.860910149822165,0.8843907154581481,-0.7724261884805432,-1.9634286142853756,1.9594045832138254,-0.630231435265402,-0.16623946828029576,-0.19937079068397293,0.15040671064007652,-0.04654852281499397,-0.8783422459893049,-0.3651173835668526,-0.8423376087850261,0.23959544169884703,-0.7234481628881334,-0.47800667380990386,-0.7925448761899972,0.1425129779121518,-0.547101020734263,-0.4102789964260923,-0.5911152889046244,-0.43510213764371564,undefined,1490688022409
903d185fccf839df,-0.21907166809730405,-0.732485151569144,0.7345837550027814,0.8167703369917276,-0.9469641834528181,-1.9464018751733627,1.9868255727361108,-0.47490581325107567,-0.20517081375798452,-0.029136748217256876,0.13449371170993996,-0.01993727141193977,-0.7695451760249554,-0.35215571741839813,-0.8854955386267349,0.24161595945021805,-0.7050139136917379,-0.5028001486999967,-0.8491490768429583,0.08239744803414556,-0.5905494393036519,-0.3917260910170191,-0.5121095196004805,-0.44067027727597324,undefined,1490688023914
903d185fccf839df,-0.4020255269780126,-0.8070361440145373,0.5808232764931418,0.6371546382137042,-1.1172233262325106,-1.9835905087127876,1.936257032176378,-0.8794384397169134,-0.2530401724726633,0.11320340909288681,0.09892897596234608,-0.05259438815544807,-0.7477857620320856,-0.42622245327816743,-0.8939166162442783,0.21534809809353347,-0.7554877966170365,-0.5475107325019171,-0.8599311630278582,0.03734160037390861,-0.6287768512695562,-0.37875547396950543,-0.4664934130414329,-0.4345973745478065,undefined,1490688025417
903d185fccf839df,-0.371533234417266,-0.8622156122939323,0.6018775062050729,0.6559188771467516,-1.0344646093133707,-2.00925872497513,1.9274682174781337,-0.9508156187177897,-0.24457829797489367,0.19843827248945775,0.16970494476731673,-0.004393941989747501,-0.7564895276292335,-0.5354707970445972,-0.9560219467982002,0.09613223699499507,-0.8312803870878411,-0.5797517493116495,-0.8874846043947882,-0.06498107004745944,-0.670005566715873,-0.41564851672325137,-0.47683919865320157,-0.4762950224816618,undefined,1490688026911
903d185fccf839df,-0.4089555589636816,-0.8399090131373272,0.5648726249995316,0.6559188771467516,-1.0858725208450464,-2.011278175472602,1.9383293120681222,-0.8960899392249164,-0.23161235735493643,0.13422526829566112,0.2894788958915905,-0.08024915811097555,-0.852230949197861,-0.671568388734178,-0.9749693548726469,0.05572010129011809,-0.8947738640125859,-0.6287180706668174,-0.8862951469188939,-0.1049246374812773,-0.707250307376058,-0.4182770425194765,-0.3868871026927137,-0.47171842880132553,undefined,1490688028403
903d185fccf839df,-0.40063951367979683,-0.7448124665296931,0.4308901004418187,0.46963351649936247,-1.0409343079813254,-1.9866720921667553,1.9527117234473896,-0.766723578087946,-0.16010208615918906,-0.05283157132159272,0.3478661706881121,0.05911393223549729,-0.8913978943850268,-0.6641617112629686,-0.9497061588311855,0.05774067557093217,-0.9056738285517537,-0.6128920444945283,-0.8434466777462971,-0.058313542967282556,-0.674768268887132,-0.42205997266256823,-0.3756804562341273,-0.4883332453115872,undefined,1490688029915
903d185fccf839df,-0.3867793806976393,-0.8469532077287801,0.327532603111322,0.41157161871411285,-1.0546965695005048,-1.9971233883837094,1.9664366776756148,-0.6889926552298374,-0.143690870800826,0.010318229030958342,0.37258542683274243,0.07523336827332495,-0.7260263480392157,-0.678049241234567,-0.9476008986295918,0.07794675755573142,-0.9035070720499785,-0.6004224782054968,-0.8470080541216192,-0.06801456460811643,-0.6730659810764844,-0.4444729664850168,-0.38083821431641585,-0.4815893017769924,undefined,1490688031429
903d185fccf839df,-0.4158856254547604,-0.8117322786135045,0.39005791677796103,0.46623015022847986,-0.932008772807022,-2.0141198469777133,1.9540318837386181,-0.7608963887258698,-0.11986586394644166,-0.00038487997657669763,0.3441953724528896,0.007819465052385986,-0.7260263480392157,-0.6623100613213282,-0.9539166939588403,0.0920910460362846,-0.8660879284608259,-0.5980919546996766,-0.8394584942987107,-0.02488352307292156,-0.6650181135931374,-0.42360340530700774,-0.37569901792242066,-0.4580895862296667,undefined,1490688032973
903d185fccf839df,-0.4713261918888002,-0.8311037735515103,0.2005683245488857,0.2217571057957291,-1.0051092219775009,-1.992909794845637,2.013005285595859,-0.36924087337960304,-0.17057967262487214,-0.08516144996422838,0.29696076496933993,0.07839458551592898,-0.8304715352049912,-0.6558292347224882,-0.9307587581189725,-0.006918775474536844,-0.9054917161183799,-0.606198122446175,-0.8434816603998734,-0.10999073292580805,-0.6851238512226113,-0.40298704122714946,-0.4257548364120417,-0.4440385779245167,undefined,1490688034414
903d185fccf839df,-0.45469408406832573,-0.8240595497320651,0.3747456573013024,0.3909963155501632,-1.1378358559157309,-2.0232038793311777,1.9381031636355541,-0.9137702460139625,-0.1863167974085068,-0.19801968804495057,0.23270074526303752,0.011238194127307833,-0.8609347147950089,-0.7002692347958712,-0.9486534919192197,-0.0008569254408476836,-0.8623900184934615,-0.6735236475996155,-0.872980214205673,-0.09426891911547634,-0.7256795937136548,-0.4046594534241537,-0.4738904497698266,-0.41340987922069855,undefined,1490688035923
903d185fccf839df,-0.46855423430318816,-0.8563454330847261,0.49341541410845774,0.540478881122595,-1.160248389044367,-2.0430163874586738,1.9454298002753585,-0.8859975458990337,-0.2567621061855161,-0.3210753564559969,0.2182425946205425,0.014693892034157663,-0.7869527072192514,-0.7326734325439437,-0.9581272069997938,-0.11199039048960438,-0.8874911694218881,-0.6893560072194186,-0.9054524125117192,-0.10706502800830518,-0.7485584660993614,-0.3933762237145088,-0.46140980194261266,-0.38250517770926873,undefined,1490688037405
903d185fccf839df,-0.3826213062975823,-0.879826062237574,0.5029857033498442,0.5028192895476067,-1.0382188803182202,-2.0524987201066356,1.9406304000502697,-0.8952381021084239,-0.2043210348756781,-0.11528067418944923,0.243554047089542,-0.06213072190669895,-0.6520443404634582,-0.7669292867090439,-0.9360219307096579,-0.04531036516332128,-0.9168456438403638,-0.7245038442469142,-0.900057870542817,-0.12378773650509355,-0.7667242195577876,-0.3797151198851159,-0.5153020374953291,-0.37592143473238976,undefined,1490688038917
903d185fccf839df,-0.26065199803295713,-0.8399089839093349,0.469809141150417,0.4489446775042613,-0.9530841664849603,-2.0437733904758404,2.001726049636347,-0.45477587793004215,-0.18001110912120954,0.14419637923741177,0.26682753648859714,0.0603186049246988,-0.6041736296791445,-0.7345251083871334,-0.916021936707817,0.05167885380196455,-0.9029130287761865,-0.7148777714850582,-0.9120643989553396,-0.072048958203556,-0.7486121936424398,-0.41627447265483397,-0.5390529543646829,-0.37890970459941536,undefined,1490688040424
903d185fccf839df,-0.2675821335348554,-0.7741632748917472,0.5336102223031615,0.5767920698557801,-0.9062431051745565,-2.009247077983074,2.0246316587551387,-0.28072388730138886,-0.19457804518965346,0.2182777697063803,0.24301317175915957,-0.08085925572304312,-0.5954698640819964,-0.692862557324662,-0.8886534731025281,-0.008939363887711695,-0.9144633593503424,-0.6811991765214611,-0.8917736468318551,-0.042175969366338655,-0.7210884299643958,-0.4143394102979627,-0.54216657415714,-0.3866701064579534,undefined,1490688041912
903d185fccf839df,-0.41449961215654463,-0.7718152148992616,0.8041273146646971,0.7709668302545417,-1.0519914317815446,-2.014459915378916,1.9422109072180729,-0.8591493418336242,-0.22640034464487935,0.11904357325266904,0.19724327338985723,-0.047007251209734494,-0.7390819964349377,-0.7002692347958712,-0.910758749392664,0.00924608728683041,-0.9526562224845281,-0.6854612476440292,-0.9041300156046996,-0.029580042472130176,-0.7207378676524366,-0.42718909752264744,-0.5703307597871992,-0.42261727806509136,undefined,1490688043420
903d185fccf839df,-0.5184506957862504,-0.740116346544722,0.6541946468872728,0.607851522685698,-1.204620889565231,-2.0061119219206343,1.8872952915814762,-1.2526558242908212,-0.2199537952798182,-0.05385573004012031,0.18726365701685038,-0.0191355491044492,-0.6259330436720143,-0.6984175978050053,-0.869706072390315,-0.01702178820221494,-0.9298647404563068,-0.6632706125998078,-0.8949571966493659,-0.060992871424876464,-0.7128051740214983,-0.42807117264789957,-0.6251355725326284,-0.44063688821318187,undefined,1490688044908
903d185fccf839df,-0.32718073986354246,-0.7553787657238704,0.476188995128742,0.4546130530036934,-1.0888862289530248,-1.9763349277015467,1.937143255516952,-0.8650914156734903,-0.2699614571977043,0.1414549493020307,0.0947776463174063,-0.058458840212568766,-0.673803754456328,-0.6789750467792255,-0.854969199443523,0.017328511601333654,-0.9559435357362291,-0.6876904418751013,-0.8851196814253804,0.030935847431735636,-0.7017315883922899,-0.40435002968955214,-0.6280570593809603,-0.4574464633421437,undefined,1490688046465
903d185fccf839df,-0.2564940271491294,-0.7800334102589649,0.49341541410845774,0.4286059599471476,-0.9404121902802303,-1.9751540032255566,1.9619502141112428,-0.673577507587198,-0.3305558357463537,0.3486735205029453,0.04346419366305077,-0.011630494224186287,-0.7869527072192514,-0.6595325475565438,-0.8591797198467104,-0.015001213921400854,-0.8838187364371891,-0.6447657483120122,-0.8782418152875893,0.0049432721242080105,-0.6937051759919286,-0.36887049322502596,-0.5306615668749721,-0.4177794250701432,undefined,1490688047914
903d185fccf839df,-0.2703541601312869,-0.741290391154961,0.49341541410845774,0.4286059599471476,-0.902499109936159,-1.9577149893369066,1.962552445913309,-0.6449399698243296,-0.3504630838256994,0.4276685328823616,-0.003111369794577608,0.03704234874937047,-0.8043602384135473,-0.6724942266557727,-0.8644428777129282,-0.019042390747750555,-0.8942919253377095,-0.6424795553178104,-0.8755760305576724,-0.019032107745293236,-0.6952739990371053,-0.37701739808845575,-0.5401932168704041,-0.40632559442773714,undefined,1490688050603
903d185fccf839df,-0.2440198039489584,-0.7178097912301055,0.5131938763342833,0.5178065266005376,-0.8808580028070754,-1.9486728826723416,1.9507025410309025,-0.7123554866075299,-0.3578305936001501,0.43450176348276554,-0.004885880316135115,0.05166326198286567,-0.8043602384135473,-0.6687909008709426,-0.8602323720342085,-0.012980597243504468,-0.8731643568514084,-0.6496611131268463,-0.871077081170086,-0.01632198102365137,-0.6973706200847437,-0.3718110720471942,-0.5243083494764156,-0.4047405327924251,undefined,1490688050916
903d185fccf839df,-0.32302273447430496,-0.7189838066123521,0.6057058252111869,0.5541980972737545,-0.8425746411225966,-1.9511628391167148,1.933038134929005,-0.8217604258872266,-0.2964930219851844,0.33291137851367275,0.044479704302086816,-0.06365138271162933,-0.4866727941176471,-0.6215733611312262,-0.8823376483243444,-0.18877348507300865,-0.8388062625217331,-0.64299885548129,-0.8903113146003929,-0.027347267209303215,-0.7031660893216116,-0.36686091346604155,-0.5307066069803997,-0.39653567366449677,undefined,1490688052432
903d185fccf839df,-0.5142927766605372,-0.7037214020471999,0.6784388035883663,0.7275338456414647,-1.0039058009054278,-1.9774506332329909,1.9737685749698684,-0.5997279714409429,-0.2607471313759787,0.12681591563703581,0.09133009292236113,0.009482388164327891,-0.4475058489304813,-0.6132408586891966,-0.9318113882197693,-0.19483525031253318,-0.8613902025342471,-0.6449050727407148,-0.9178227743496645,-0.043515634025929464,-0.7147169864655273,-0.3744962204540757,-0.4649022390698742,-0.39194198479339826,undefined,1490688053987
903d185fccf839df,-0.4907304470746402,-0.7659450210760592,0.7192717496630722,0.8029945993339495,-1.0893079410952278,-2.0182216364806367,1.962486705540566,-0.7156652834425199,-0.2534747911361674,-0.2288360260625328,0.19083706325058003,-0.07073649104407276,-0.8130640040106952,-0.6049083497717798,-0.9549693461463384,-0.37466935736546936,-0.8872020709932538,-0.6634732643392046,-0.911007880066416,-0.13145615660240037,-0.73402369670384,-0.4193238492290862,-0.4626741989164828,-0.43613353427908014,undefined,1490688055400
903d185fccf839df,-0.5281527888737606,-0.8041010544099341,0.8245436606335753,0.8537054291044606,-1.2133843040321601,-2.0331869990511056,1.9309342953006536,-0.9732313425821023,-0.2970140319162845,-0.5535921133051196,0.2777675082861135,-0.10259555947035828,-0.499728442513369,-0.5762074972346992,-0.9749693254237117,-0.1988765119330475,-0.8750550583688274,-0.6787483240627508,-0.9491544931556889,-0.09195914762711208,-0.7379683791617965,-0.45295009161594885,-0.5007914595721129,-0.4875060404127135,undefined,1490688056897
903d185fccf839df,-0.47409828749605115,-0.7125266124050245,0.9106749931213057,0.8847914458918401,-1.179379790317164,-2.0058603644892052,2.0028068920510136,-0.4652646969592257,-0.26425605956181275,-0.548892120659294,0.2691575499866855,-0.1359134315950198,0.07472008689839574,-0.5243607808377833,-1.011811496747341,0.6942321026361404,-0.7108840605937393,-0.6349686857718866,-0.9574806978359011,0.40003657904427986,-0.616593932682067,-0.47049642604996966,-0.39377017597102876,-0.5340633892297528,undefined,1490688058421
903d185fccf839df,-0.7000186621376772,-0.7213318519908415,0.888982879666322,0.8208750542318335,-1.25326195178639,-2.002583125229968,2.040894375944587,-0.22040714553865293,-0.22574424958697717,-0.5590354949526669,0.2112296808635436,-0.22659599610305872,-0.4300983177361854,-0.5919466900987126,-0.9876009455311439,0.6679642695441773,-0.7494833534744734,-0.6818894652451437,-0.9749237474248621,0.3710413042899629,-0.6483024361568632,-0.4907612580496746,-0.3696690499480407,-0.5268420637751384,undefined,1490688059951
903d185fccf839df,-0.6917025650956778,-0.7952958294381133,0.888982879666322,0.8208750542318335,-1.3048652934562899,-2.030158987832316,1.9580896783394373,-0.800323230767559,-0.21703842897427467,-0.6454033379566925,0.11214433016051527,-0.22100057143069124,-0.26907865418894833,-0.6224991796266591,-0.97602197761121,0.4214500382384327,-0.7921429286819618,-0.7193804910124876,-0.9791638146693189,0.3460958228823756,-0.6669993533394339,-0.4803428958920614,-0.3879704442611696,-0.5328579689297009,undefined,1490688061432
903d185fccf839df,-0.7208088961163233,-0.8399089839093349,1.1039923960825964,1.1390200845946652,-1.387994298549617,-2.041851769249143,1.9788809244259362,-0.6898264481164328,-0.24016040479359507,-0.48492076139732865,0.10710852566655693,-0.11398952062636979,0.07036820409982177,-0.6447191990895125,-0.9981272907125148,0.4659035203579886,-0.7428843733883086,-0.7224013050967736,-0.9998883682841737,0.28231546282660536,-0.6908065055347551,-0.45681222984877223,-0.38239024272184846,-0.4923283613554498,undefined,1490688062988
903d185fccf839df,-0.7318970197547541,-0.8551713884744871,1.310708153154438,1.3088751736577637,-1.3818948797436847,-2.0501671534806922,1.9495822594206944,-0.8911276649200124,-0.30317809201870577,-0.6212435784088933,0.10366859985411615,-0.2387378251407666,-0.10805899064171122,-0.7391542591427837,-1.0012851736526716,0.05167883966960378,-0.8322106003631842,-0.7804807328189584,-0.9997274417747027,0.12157109335719689,-0.7519433931041667,-0.45261152211490013,-0.37388993480475885,-0.5154143451725286,undefined,1490688064410
903d185fccf839df,-0.8552522895594804,-0.8404960135214525,1.3649394533396948,1.3612046648571037,-1.4371187880874685,-2.0323764233190054,1.9546683024619511,-0.8601002950732003,-0.3154603496343189,-0.5991052021338487,0.2466399385725955,-0.21916512367701102,-0.0950033422459893,-0.7715584439400816,-0.9665482846173372,-0.36860757799358407,-0.9874451379305126,-0.8292443984151099,-0.9774006187871759,-0.3292491906081564,-0.8600386996298427,-0.41997085985998056,-0.5968443172338055,-0.5123517665488333,undefined,1490688065910
903d185fccf839df,-0.6820005237662822,-0.7448125103716816,1.4172563398849454,1.4057180256191988,-1.2576745159099176,-2.004048216284388,1.911476367426637,-1.0809986239577403,-0.2891455442641645,-0.6574816074617855,0.3368097790256666,-0.20580574585813252,0.3967594139928699,-0.7011950727174661,-0.9739166953229149,-0.14836126457396706,-0.8049658517466632,-0.7787138412782794,-0.9641416619862437,0.08339834759395798,-0.7421854144418571,-0.4130019830820455,-0.575575556334342,-0.5126883604424038,undefined,1490688067416
903d185fccf839df,-0.6126996863284458,-0.7037213655122094,1.2233005449067031,1.2818412616889685,-1.0818713821004058,-2.0139288489405343,1.9476940500585789,-0.797416618956033,-0.29462095869495053,-0.5956778384821431,0.2874595705827495,-0.2600861046782581,-0.012317569073083769,-0.6086116885073845,-0.9412850885758758,0.38103793079827725,-0.606177742573323,-0.6964869004768989,-0.9099163780712534,0.3974342413869129,-0.6286476417046647,-0.4287870875043502,-0.538986016835582,-0.43356731445537194,undefined,1490688068911
903d185fccf839df,-0.28560034091706993,-0.6737836225290129,1.2060746342008863,1.2459420355110864,-0.8836865738117791,-1.9810632839235724,1.9710467341463647,-0.566715115963615,-0.25977601698311775,-0.3137080320202582,0.30190942155305156,-0.26169873575759517,-0.15592970142602494,-0.5530616787025747,-0.8991797741104962,0.6255314464996001,-0.5679587548557911,-0.6069644083819894,-0.796763953686935,0.7463784163645983,-0.4780598772022056,-0.349876243411002,-0.5929585886505386,-0.41292415165275004,undefined,1490688070406
903d185fccf839df,-0.36183114132975575,-0.6767186829056236,1.3528171208521986,1.364138575661049,-0.847923203834666,-1.9932568509685702,1.9711571900819254,-0.5798668435475101,-0.2869998581292669,-0.3694927716609617,0.31321396591912937,-0.2795292863776808,0.2879623440285205,-0.5299158342689012,-0.8560218442687875,0.5750163121994059,-0.6269410184219089,-0.5665792281070641,-0.801234915372235,0.7324120270044697,-0.4552929233686787,-0.38260431906278897,-0.6722450749685154,-0.40653750055871923,undefined,1490688071925
903d185fccf839df,-0.36044505902072055,-0.6767186975196199,1.2239386827867054,1.224069641726096,-0.9959343778725758,-1.9889896853955573,1.9323386208254583,-0.8796514441966282,-0.28822177068921584,-0.6131794650345969,0.21130615687411955,-0.1827282549372561,0.11388703208556152,-0.5743558602438333,-0.8307586482273259,0.46388287541537065,-0.6675316298278098,-0.6032406396423726,-0.7989399620408593,0.7506437832626923,-0.4680121436743636,-0.38842478449585455,-0.6264864871466055,-0.42685686832821984,undefined,1490688073412
903d185fccf839df,-0.4020255614834223,-0.7295500765785371,1.0267932149562502,1.0270873560416527,-1.0580394171549958,-1.9930472199232485,1.983456786642767,-0.5547881270492754,-0.3160941761279952,-0.8096771002154158,0.14775168986897905,-0.12056877152415212,-0.5563029188948306,-0.580836680367286,-0.8591797272089441,0.23757474022678604,-0.7387167734476152,-0.64271387839191,-0.8135143193661286,0.2784504577717827,-0.5936844826258002,-0.36336065808440304,-0.5524405384689952,-0.2886462014212027,undefined,1490688074907
903d185fccf839df,-0.46578220770675666,-0.7430514069213329,0.46789498164735993,0.4538163620646914,-1.1917534793272624,-1.979130015612401,1.9835435727758721,-0.5758538193186856,-0.28807681461534995,-0.7051246886991542,0.07448844723345632,-0.004087708165471742,-0.8130640040106952,-0.6484225248743426,-0.8876008135527961,0.2537396453852356,-0.7969856256404888,-0.6812118429347991,-0.8713079765468394,0.049691156206593694,-0.6735682210356293,-0.42428352965151234,-0.5797639838062699,-0.37444203668051745,undefined,1490688076507
903d185fccf839df,-0.5226088219444219,-0.8076231443986625,0.3326366896035416,0.3252048843086477,-1.144860990759986,-2.0097804739184455,2.000655724340491,-0.4891711028648501,-0.3248207771851021,-0.614934002880412,0.09734203878767692,0.030195359741519934,-0.7564895276292335,-0.6586067031595617,-0.9286535273663139,-0.05137213040284583,-0.8451130268455287,-0.715441403704886,-0.9096714904735534,-0.1481018772068208,-0.7415555182827226,-0.46707511081457237,-0.6204143111431555,-0.4728274114461419,undefined,1490688077904
903d185fccf839df,-0.46716829001579185,-0.798817948654834,0.0914683487092179,0.07902662335967554,-1.122499886786717,-1.9703115164237643,1.9709415556256022,-0.6493433314213137,-0.2885518413339115,-0.6254541172991478,0.032390935106094185,-0.07288571979141016,-0.7216744652406417,-0.7382284341719634,-0.8949692242583738,-0.08370188419030188,-0.9093349262569173,-0.7719375926950965,-0.8685932136208357,-0.19947109091946177,-0.7697955644367119,-0.4464396843646995,-0.6052460928185898,-0.47435117341211086,undefined,1490688079418
903d185fccf839df,-0.37984924519574104,-0.7600748710948454,0.07424243800340101,0.061231955036924336,-1.1215021748581637,-1.9817969944928384,1.9628417483873115,-0.7001827753040923,-0.2755258427470056,-0.6305630077392317,0.021502722949274623,0.02220850496715843,-0.852230949197861,-0.6808267096716405,-0.9339166631458304,-0.26757719633430926,-0.920477754214264,-0.7541483532519759,-0.9152339545822105,-0.2729062775624353,-0.7953611281686086,-0.4403396835455726,-0.5933794290352344,-0.4535057186879713,undefined,1490688080899
903d185fccf839df,-0.3701471348555259,-0.7295500619645409,0.08317433522783582,0.06012357636023721,-1.1526986929895822,-1.9739614338296523,1.957950309754843,-0.7312348308033281,-0.2456466710415643,-0.6817252529051897,0.02241743611296465,-0.08850235479332698,-0.8609347147950089,-0.6826783790394428,-0.8970745286333701,-0.19685592351987266,-0.9184695641152676,-0.7270813506127829,-0.8788575350423459,-0.20141129384754836,-0.7555393446404153,-0.45459784959970906,-0.5855222131350415,-0.5096684669893997,undefined,1490688082416
903d185fccf839df,-0.4172717077637956,-0.8404960135214525,0.2752154624291221,0.2699392993278563,-1.1338552978875953,-2.0311302814029695,1.9838775551969505,-0.6045771794833675,-0.2816557001646618,-0.5797001195429178,0.07550341678305464,0.030601559508649578,-0.8130640040106952,-0.7011950727174661,-0.9118113868556945,-0.4069991394176469,-0.9579404431634184,-0.7361881251268456,-0.9030665004187323,-0.3051352237738146,-0.7888886524564492,-0.4586420197911926,-0.6189771091526616,-0.5046880620388429,undefined,1490688083933
903d185fccf839df,-0.553101045494349,-0.8522363134838802,0.28733779491661826,0.285399602415957,-1.1595489677713464,-2.0348873444566293,1.9799196952227935,-0.6389097165340287,-0.30296999240327904,-0.6668988835232404,0.13686818365831746,0.1018897987994608,-0.8870460115864528,-0.727118430915924,-0.9033903092381511,-0.42720519313772465,-0.9531078759904771,-0.7214133674555135,-0.9192781112689299,-0.30262527813535617,-0.7936426887734637,-0.4501637198508627,-0.58431840820572,-0.4728355483406562,undefined,1490688085400
903d185fccf839df,-0.4311318752513628,-0.8023399948015738,0.4206824357312784,0.4388606270098907,-1.116431323569509,-2.0560554701459703,1.9374141404627734,-0.9184252050765737,-0.24215484891996147,-0.47813911651246294,0.17449247088840117,0.07908163023932017,-0.5258397393048129,-0.6826783790394428,-0.9812851502018954,-0.44539067257698833,-0.9496034209832805,-0.7156187247602964,-0.9677240290327612,-0.25740004552893914,-0.8028885915163028,-0.436342361696453,-0.5494356835721076,-0.4908072250554981,undefined,1490688086917
903d185fccf839df,-0.47409828749605115,-0.7823814994794428,0.5865652467284141,0.5421634140233594,-1.1559386854981635,-2.0346683955923264,1.9678383718256731,-0.7035020895765678,-0.23350932398901927,-0.5508198231083743,0.12597252699662112,-0.021930127558681022,-0.6389886920677362,-0.6632358603905993,-0.8686534422895182,-0.34031905756192077,-0.8320440952885435,-0.681325834630949,-0.8707272401858237,-0.19271117410896915,-0.7373666394485204,-0.44423255247533633,-0.5866847558703893,-0.4791752864955479,undefined,1490688088417
903d185fccf839df,-0.5198367608425807,-0.7994049490389592,0.8066793579108068,0.8189225329981263,-1.1569363981248986,-2.0260478807255997,2.0200636864724597,-0.3402495838953103,-0.24337422476520543,-0.5842055306945447,0.08649612277324459,-0.03868797471258896,-0.41704266934046347,-0.5910208262755687,-0.8844429306126395,-0.4272051790053639,-0.8250320867749947,-0.6663294236042449,-0.8713989350087146,-0.2114972763822178,-0.736447884978078,-0.4267994206516185,-0.5449004896829376,-0.43142074887784887,undefined,1490688089991
903d185fccf839df,-0.43667585943340637,-0.8416700142897029,0.9132272905043649,0.8746336587239318,-1.0854199503313944,-2.006298261265096,2.0170446720961936,-0.3441615090595953,-0.2939461355390322,-0.7036005522940506,0.08528999812962436,-0.12238657080841826,-0.4126907865418895,-0.6012050110361752,-0.8349691980794484,-0.29182442688073673,-0.7842608425746818,-0.6845176375965646,-0.8200003611647535,-0.13094800884503452,-0.708981900145115,-0.4313399733721902,-0.5572567730580225,-0.4241831412071638,undefined,1490688091454
903d185fccf839df,-0.47271220518701595,-0.8410829992915815,1.0905940419720452,1.105910617639015,-1.1154850428888676,-2.009356552276146,1.9842325802358254,-0.5703813127458051,-0.28655184332289957,-0.6568671727630919,0.10520489640271992,-0.09650338188242452,-0.49537655971479505,-0.6012050110361752,-0.8360218134557776,-0.31000994871708265,-0.7990115384017352,-0.6842326551919853,-0.8144588868219669,-0.10974434923663878,-0.7034103351907615,-0.43456713148536735,-0.5626457923640611,-0.4330695045852337,undefined,1490688093546
903d185fccf839df,-0.47271220518701595,-0.8416700581316914,1.1920381422103332,1.1927973553440046,-1.114754758685211,-2.015594254808247,1.997163334865551,-0.48961161677822324,-0.28393179543162533,-0.6173776867047287,0.14777416353753012,-0.08073243744229407,-0.9305648395721926,-0.6262025507392002,-0.8391797258448694,-0.2938451000880762,-0.8490844359669752,-0.6975698341890062,-0.8218195320599772,-0.12284842640566476,-0.7141177180502479,-0.4303785699187474,-0.5633933301303947,-0.4310039511736781,undefined,1490688095869
903d185fccf839df,-0.5170647687515589,-0.8211245185834467,0.8749466418127182,0.8531963074461671,-1.1707603793397452,-2.0197216672114933,1.9204781946341538,-1.0143917464903724,-0.2785853912288871,-0.6660899675423096,0.12832758378943226,0.06529869606915258,-0.9088054255793226,-0.6891592185890573,-0.8433902462480567,-0.32819544228870706,-0.8403364774725849,-0.7138075021820157,-0.8103517586416114,-0.20655437363039708,-0.7289643029083743,-0.43460941086103655,-0.5824207998505481,-0.4282720686884588,undefined,1490688097198
903d185fccf839df,-0.5586452022034413,-0.8211244893554543,0.4838451248670713,0.4669879910353931,-1.1712026655067103,-2.0394666280155223,1.8995291613873582,-1.1788817334053012,-0.2613067811142978,-0.6561880579719856,0.17766357235037383,-0.07616052032920327,-0.843527183600713,-0.5928725150695329,-0.8381270736573713,-0.30596872949365067,-0.7714539215951828,-0.66925524345032,-0.8092392669845684,-0.21480794076655135,-0.7086495255520711,-0.43953099319600286,-0.5724271234209908,-0.4248174240623202,undefined,1490688098730
903d185fccf839df,-0.6140858376483005,-0.8440181181241769,0.2777680139491307,0.25496022767616894,-1.2263751424125324,-2.045899986342473,1.8861355571579432,-1.2848402705711768,-0.2826004641148833,-0.6886657339021119,0.15850668620583272,-0.07497940980642763,-0.4779690285204991,-0.5919466836233254,-0.9328640477695013,-0.3645663729025128,-0.8574965215846093,-0.6663484221916638,-0.886337126401698,-0.2434182539673797,-0.7438813794003095,-0.43508405749708834,-0.5435723110485483,-0.43397050467621756,undefined,1490688100247
903d185fccf839df,-0.4269738008513058,-0.8211245039694505,0.37091733829518825,0.4209133224768409,-1.1135513294630148,-2.0380784013343116,1.983417342209617,-0.6200415756718409,-0.2771842440764898,-0.41867074105776536,0.17032974309804044,-0.004475573588341519,-0.42574643493761144,-0.629905870048643,-0.9370745681726885,-0.3766900447051696,-0.8711865333009501,-0.6793246246725064,-0.8980497868305258,-0.21828799129521081,-0.7503869465442602,-0.4543294119469014,-0.5451534884922573,-0.46872368242946644,undefined,1490688101724
903d185fccf839df,-0.40202559598883203,-0.8258206239544216,0.6261221711800652,0.6522566020179462,-1.0266989015016215,-2.05360976898081,2.0134444674881364,-0.40751152913810923,-0.22732583192956066,-0.5059297000248605,0.16045453687281422,-0.05136736382824593,-0.6172292780748664,-0.6326833643872656,-0.9707588344694597,-0.29990690772468304,-0.9150746930738858,-0.6620420213270737,-0.9473143324028388,-0.31214151765002046,-0.7761267288310048,-0.4478327556148137,-0.5596694502394541,-0.51774624391939,undefined,1490688103207
903d185fccf839df,-0.44221987812085967,-0.8551714177024795,0.5667867845025887,0.5668630122385192,-1.1129856150756257,-2.061883226825799,2.050135521028665,-0.18704746322019683,-0.21640672061762087,-0.4283762711278135,0.15891449629371474,0.12682752219978718,-0.20815229500891266,-0.6299058765240303,-0.9581272290864952,-0.24939167449796334,-0.9022878613083739,-0.645785354569472,-0.9375397885379142,-0.3047502633646222,-0.7652078134741579,-0.44335683790151226,-0.5549756223274045,-0.5124384894673116,undefined,1490688104706
903d185fccf839df,-0.557259119894406,-0.8733688753372444,0.5540265682720398,0.5265976550446873,-1.2067294599447649,-2.055491793487822,1.9827546296417342,-0.6501399179422739,-0.22970236893525386,-0.6579269134875272,0.2103504115048157,0.11585935379603746,-0.5606548016934046,-0.6030566545024284,-0.9707588197449921,-0.291824469277819,-0.9102134511591069,-0.6447024210788312,-0.9343072616253875,-0.3077683619972849,-0.7584969979555626,-0.4290019849338071,-0.579293098391623,-0.5277333159143378,undefined,1490688106226
903d185fccf839df,-0.5087486544568547,-0.8475401934989091,0.6286737061522761,0.6299199541574718,-1.1479261274811903,-2.0188598482410645,1.9996301009896693,-0.4908510268155317,-0.20412490100355518,-0.7089135286990917,0.21883908958763684,0.05793944017595406,-0.8000083556149733,-0.5910208392263433,-0.9328640330450336,-0.2615153886977024,-0.9043317452656126,-0.6452660531879258,-0.9255122698089857,-0.2860873500011748,-0.7516127564231089,-0.427618423480726,-0.5537275930290433,-0.5456512303543818,undefined,1490688109063
903d185fccf839df,-0.48102838849253965,-0.8475401934989091,0.6350540684045,0.6169893927843272,-1.1243718821473274,-2.0191486739711264,1.9782787041466092,-0.6272594693775919,-0.2028217212011729,-0.7219737850404127,0.22157629156542774,0.060255366846576404,-0.7956564728163993,-0.5956500158835427,-0.9349693006088611,-0.25747416947427043,-0.916318457862351,-0.6488884971264207,-0.9243787864102616,-0.2817141921002333,-0.7519899700266571,-0.4262804671961379,-0.5601159660306578,-0.549365726443086,undefined,1490688109294
903d185fccf839df,-0.5045906145622074,-0.7964698302063637,0.904932768749084,0.8917612196876444,-1.1079353361372968,-2.003603331276205,1.9618371582265897,-0.7179463282568408,-0.21257608194860358,-0.738508768933064,0.2997407508667599,-0.13955780524917713,-0.8217677696078431,-0.604908330345618,-0.9707588050205245,-0.20493836196673665,-0.931247663430168,-0.6430558551302861,-0.9249805115584181,-0.30756818203147307,-0.7546426056927766,-0.42321243228797056,-0.5460646365762094,-0.5324513268051559,undefined,1490688110708
903d185fccf839df,-0.38677934619222953,-0.7823814556374543,0.7607425794808308,0.6584987341694244,-1.062143416562983,-2.0137215464499074,1.9869491750701853,-0.5366481575716252,-0.2299558868490476,-0.8550981508237417,0.21832384911011588,-0.04826024533165168,-0.7216744652406417,-0.6437933805940795,-0.9518114337572466,-0.35850452286882367,-0.9111784284295795,-0.6289080583127392,-0.9062640435337922,-0.3217963448699525,-0.7497633471546613,-0.40710605308281683,-0.5465820850404266,-0.5212954952943226,undefined,1490688112224
903d185fccf839df,-0.3576731014351085,-0.7747502752758724,0.6388823874106141,0.638571633133858,-1.0874770906353215,-2.0093658692819445,2.0320108893691726,-0.2598279199082445,-0.2726056357633241,-0.7543642811911798,0.21252587777442028,-0.09424013401646703,-0.7129706996434938,-0.6234250240236412,-0.9876009234444425,-0.2938450718233546,-0.8696124200691655,-0.6481918722477944,-0.9178577587037837,-0.253581232579501,-0.7492460064353295,-0.39708821281345574,-0.5254048804285621,-0.5211829037280343,undefined,1490688113712
903d185fccf839df,-0.4255877185422706,-0.8105582340032655,0.7550003551086091,0.6711298692564036,-0.9548738809764891,-2.0310487564864306,1.9605143508477882,-0.7153666107749762,-0.30217176637280635,-0.9469512899348416,0.20650206013464018,-0.06805009617212218,-0.7434338792335116,-0.637312541044465,-0.9654956545165404,-0.23928867590264602,-0.9135504247728906,-0.643315505760156,-0.9076983892557949,-0.1892311280094094,-0.7358548279094916,-0.4094091702043767,-0.4688260663717049,-0.5102572421351739,undefined,1490688115208
903d185fccf839df,-0.5198367608425807,-0.8475401934989091,0.6618502683517032,0.5930602097054766,-1.0239629095822989,-2.0282420233485103,1.9306318663310518,-0.9345924887323632,-0.3126242167166903,-0.8369872111260277,0.22698578008095993,-0.019748502498899048,-0.8913978943850268,-0.6808267290978023,-0.9791798900003018,-0.2291856631749679,-0.9099230637947998,-0.6678113315610348,-0.9090137897006102,-0.20008703211635304,-0.7521622351423292,-0.4194736891393885,-0.47926656865506806,-0.48690033660793053,undefined,1490688116697
903d185fccf839df,-0.48380041508897115,-0.8493012531072694,0.6248456412831114,0.5932577745042869,-1.0189846315835152,-2.0414721025009843,1.9463712678202998,-0.8458407038208438,-0.27269965396992296,-0.5409321403523961,0.19157318854903868,-0.012222277567447795,-0.9914911987522282,-0.6715684016849525,-0.9518114190327791,-0.21908265044728983,-0.9800172299649077,-0.6726876985857297,-0.9198168659511163,-0.1258665247152319,-0.7437812919800482,-0.4454953356674751,-0.49652495158315746,-0.48426098812986546,undefined,1490688118235
903d185fccf839df,-0.5974536435643018,-0.8340388339281211,0.6101720279603537,0.6117200683339874,-1.1533261218092674,-2.012484720498615,1.946055686167054,-0.8574968516160877,-0.2596205011939842,-0.39476549171096786,0.13814076290142027,0.079662599858054,-0.9305648395721926,-0.679900904126982,-0.9370745755349222,-0.14634069029315297,-1.0015495890699544,-0.670559830157916,-0.9390720893246884,-0.13125598105222616,-0.7471641741551313,-0.45030548167746254,-0.5088645015973824,-0.4736208420738031,undefined,1490688119979
903d185fccf839df,-0.5974536435643018,-0.8299297289412714,0.6171897656817316,0.6299657610401297,-1.1582529705086464,-2.0136144015224473,1.9549786192706613,-0.79861147197367,-0.25857259771137675,-0.41034991065011955,0.13407923555197968,0.07530419903011333,-0.9479723707664884,-0.6771234033129722,-0.9370745755349222,-0.14634069029315297,-1.0015495890699544,-0.6641128937490176,-0.9385263381374783,-0.1294851596239686,-0.7438988912315571,-0.44932069666371166,-0.49314771937137636,-0.47213888711660296,undefined,1490688121640
