UUID,iqrAccX,iqrAccY,iqrAccZ,iqrAccXYZ,meanAccX,meanAccY,meanAccZ,meanAccXYZ, covarianceAccXY, covarianceAccXZ, covarianceAccYZ,pressureDerivative, pressureIQR, iqrGyroX, iqrGyroY, iqrGyroZ, iqrGyroMagnitude, meanGyroX, meanGyroY, meanGyroZ, meanGyroMagnitude, covarianceGyroXY, covarianceGyroXZ, covarianceGyroYZ, class, timestamp 
903d185fccf839df,-0.31470668919042016,-0.4143226864654401,0.9655444311865649,0.9894713356293365,-0.4835832576646733,-1.5783890626495753,2.0519553634047543,0.5845969500266367,-0.4111222448765919,-0.49370235665401524,0.1129996451194926,-0.6329687745164824,-0.13417028743315507,-0.3188256299456327,-0.6276004792437723,0.28808995932114495,-0.48866744540839147,-0.5755242662402432,-0.7562061275648501,0.24585668667375463,-0.5456781306116061,-0.2955057455927746,-0.7478649588231058,-0.49712330367762425,undefined,1496112966582
903d185fccf839df,-0.3729191787046623,-0.3051377799028927,1.3572831965328909,1.2374112163172442,-0.765557722693781,-1.436675466303636,1.7870560099659287,-0.8360772861258692,-0.30835685974383226,-0.4481211572158521,-0.022419283407542515,-1.079884293625297,2.4051533255347595,-0.2669790430564622,-0.6128636431081492,-0.540359260732017,-0.6667365926183679,-0.5008953073283358,-0.719790940863689,-0.14730672680224494,-0.5796358806946277,-0.2501237276536156,-0.7104616985544675,-0.5357034206515323,undefined,1496112967987
903d185fccf839df,-0.4061834978618403,-0.3632523816288794,1.291568082945564,1.1727083181013649,-0.8225781623559654,-1.5365455110847683,1.8367022712368437,-0.7078557889141865,-0.37400844982148246,-0.3448203739472968,-0.10539091431294925,-0.729286718490513,3.4365495487967914,-0.2743856946261224,-0.6381268538740783,-0.491864686580276,-0.7038036157561988,-0.4271399247564546,-0.777008382622371,-0.21244987679963456,-0.5545122810423682,-0.39365053717500526,-0.7165384331948152,-0.5469264001557044,undefined,1496112969493
903d185fccf839df,-0.25510801385091364,-0.36853545815598726,1.0880419987259353,1.0016935986166007,-0.7974101443463998,-1.566346900037451,1.886979734544992,-0.43801623570397125,-0.3517690414802666,-0.28571867740683676,-0.08721342858257501,-0.5404603333661712,1.785010026737968,-0.327158197141535,-0.7728638380765914,-0.45751433024728433,-0.706091756408547,-0.4490188062601417,-0.8411045190800411,-0.2714011374782673,-0.5987741307009533,-0.42442655308469684,-0.6614652524496675,-0.5268215252635334,undefined,1496112970972
903d185fccf839df,-0.44083393383346337,-0.45952289977677163,0.48639767638708,0.5429303721373441,-0.9754864197700823,-1.5811631896217793,1.8931992296879712,-0.540992712109599,-0.41512861551100666,-0.265987905216247,0.036155963128923434,-0.11553028993253606,-0.7521376448306596,-0.5169541681204467,-0.9391798504609835,-0.46357615201625196,-0.7536000241126958,-0.526846337847327,-0.898014803430668,-0.29634271390105005,-0.6736116037512107,-0.4308256539405922,-0.6149844413252981,-0.5075750061151904,undefined,1496112972532
903d185fccf839df,-0.36183103781352655,-0.4606969297730144,0.6120854250525625,0.638217649403903,-0.9988349561724804,-1.5307654428327113,1.8946508817236647,-0.4657805420402653,-0.5178803371948792,-0.5356885254109115,0.09550679445912204,0.06168923145510615,-0.852230949197861,-0.6030566804039774,-0.9844430699532211,-0.4251846471216321,-0.8005052746947754,-0.6742646015503271,-0.9572917853246867,-0.3144820821655947,-0.7811988398893003,-0.426469670566977,-0.568622388714136,-0.47549522049946336,undefined,1496112974062
903d185fccf839df,-0.22184366018832583,-0.3708835181484728,0.6803532172283727,0.7317837435493586,-0.9813801266837788,-1.5718532233714462,1.8380521908228131,-0.8733196713486396,-0.5832808209916484,-0.517128614123238,0.053010074372217705,0.17597013736943773,-0.10370710784313725,-0.5475066317468441,-0.9307587581189725,-0.376689959911005,-0.6555055292963337,-0.6577926162247404,-0.9152829325764343,-0.2253558789801265,-0.7432960646273956,-0.37280956027113127,-0.5186153015351941,-0.5112081929783321,undefined,1496112975491
903d185fccf839df,-0.11512049820407395,-0.2669818050250025,0.44939279518153874,0.5402900259793313,-0.667429794224146,-1.4522747389490118,1.8478981865134432,-0.4493986934674836,-0.5317748433535154,-0.5242547528092606,0.029454533651822424,0.17449308403163943,0.2226841020499109,-0.4725141421455146,-0.8465481291882133,0.03753460771849368,-0.5907925156229074,-0.610187878518735,-0.8696287416672863,-0.06491947323665459,-0.6713752767758285,-0.3408884316982863,-0.5143223649727625,-0.5729576301067394,undefined,1496112976985
903d185fccf839df,-0.11234843710223272,-0.3890809830902358,0.3728314977982453,0.5494444683383399,-0.6992434530735847,-1.413614027722059,1.728047400901194,-1.136987300462717,-0.45010480606478875,-0.37134635462819543,-0.014559741996987001,0.22239262376432653,-0.4866727941176471,-0.506769976884453,-0.8581271044703811,-0.12007282893646838,-0.7574176436263196,-0.6019360519104935,-0.8545156293478603,-0.1349669971157876,-0.6715795252477244,-0.36168098471720733,-0.5703690222785126,-0.6072560221518573,undefined,1496112978466
903d185fccf839df,0.12743203601614111,-0.36383933817101616,0.8679281416804921,0.8780156997989358,-0.6348549861098592,-1.529719612222638,1.8651549631270186,-0.4841094821186408,-0.5040482341975336,-0.4497942704886638,-0.03583323494635663,0.0752851864443919,-0.7042669340463459,-0.5521358278302054,-0.9907588431957681,-0.006918775474536844,-0.881930241343576,-0.6692045799618042,-0.8966924061199225,-0.10781954117302403,-0.7005184006598659,-0.37143212531530284,-0.7130359557576815,-0.6182414546580042,undefined,1496112979964
903d185fccf839df,0.012392828748004459,-0.3920161749928121,0.5501987575398245,0.6575484656773193,-0.5578151146075515,-1.4864563244135474,1.7660743956487768,-1.018547077703132,-0.40356834135442654,-0.3924977476387284,-0.024575797386113624,0.030509177567357788,-0.9001016599821747,-0.6030566804039774,-0.9823377803026923,-0.32819544228870706,-0.971041559497568,-0.6734983155203892,-0.9309347990213943,-0.27901946040461106,-0.7494205471266319,-0.4108960530444896,-0.7216216690663112,-0.5604464224984101,undefined,1496112982385
903d185fccf839df,0.03041100162480924,-0.39729930997590457,0.5501987575398245,0.6575484656773193,-0.5666299569755204,-1.4807287254119548,1.7669422318393015,-1.000654479560116,-0.4158310515112564,-0.3888333606961992,-0.028904121512874685,0.005484453406529287,-0.9001016599821747,-0.603982511850185,-0.9823377803026923,-0.32011300384184305,-0.971041559497568,-0.6725040433575021,-0.9307178978169297,-0.28102125839340225,-0.7492512626181563,-0.4112205360167377,-0.7215226547138834,-0.5603523992880393,undefined,1496112983364
903d185fccf839df,0.008234754347947466,-0.4043434899533612,0.6273979386661707,0.7018960026631945,-0.5615179656534294,-1.471751837845965,1.7700006958863266,-0.9666037440776708,-0.43736682650729625,-0.393451216194022,-0.02478322620727118,0.03399213558096157,-0.9131573083778967,-0.5688008262388772,-0.9865483227925809,-0.3120305371302575,-0.9576887098303734,-0.667311029519894,-0.9262959135141474,-0.2777259908794247,-0.7449006356676344,-0.4038463059259783,-0.715484742609535,-0.5525620237514332,undefined,1496112985413
903d185fccf839df,0.012392828748004459,-0.43134623832292973,0.669506652226982,0.714943406681206,-0.571145378193465,-1.4675196098958208,1.765490579279847,-0.9875900285619041,-0.4391397516274047,-0.38123185962283884,-0.029377790385048494,0.06072584450993547,-0.9175091911764707,-0.603982511850185,-0.9897062204572051,-0.3079893179068255,-0.9576887098303734,-0.6690082584032884,-0.9248825576803562,-0.2809596644500695,-0.7458707457226424,-0.40268234641971246,-0.7153229401065039,-0.5530737091285713,undefined,1496112986357
903d185fccf839df,0.037341068115888,-0.4413254932909933,0.669506652226982,0.714943406681206,-0.5907910599570493,-1.4585194297283544,1.7684175542012113,-0.9518224125959902,-0.45275537639928115,-0.3839535758079398,-0.02830288860542541,0.0871162152426551,-0.8870460115864528,-0.6058341812179873,-0.9865483227925809,-0.3120305371302575,-0.9561798530329834,-0.6667537306091634,-0.9238050487441775,-0.2766173028611412,-0.7443131559572695,-0.4000613464567856,-0.7133989075528909,-0.5520382047805467,undefined,1496112988313
903d185fccf839df,0.037341068115888,-0.4413254932909933,0.6273979386661707,0.7018960026631945,-0.5910070593848025,-1.4583656996255752,1.7720177577617473,-0.9282249302155273,-0.45285730363909027,-0.38840496835418026,-0.030319888847226167,0.0314630940382196,-0.9001016599821747,-0.6058341812179873,-0.9812851575641293,-0.3120305371302575,-0.9521224868688869,-0.6681849758470341,-0.9256242195721135,-0.2767712873425287,-0.7456202425080177,-0.39949998664313896,-0.7121947188251718,-0.550185936834285,undefined,1496112989395
903d185fccf839df,0.012392828748004459,-0.4289980614184748,0.6191036710478391,0.6724865577612542,-0.5706105223715752,-1.4568330603189843,1.7827394774820107,-0.8516164722516505,-0.45350939243108407,-0.4344333636734441,-0.036823524216355055,0.015236202220387369,-0.9044535427807487,-0.643793367643305,-0.9781272451750374,-0.3120305371302575,-0.9618912908342077,-0.6746445784644138,-0.9280521128423304,-0.27480028632540404,-0.7495537630097666,-0.40084878686194964,-0.7101805745006131,-0.550069042623647,undefined,1496112991389
903d185fccf839df,0.012392828748004459,-0.4289980614184748,0.6191036710478391,0.6724865577612542,-0.5715773778491797,-1.4581956653280261,1.7815034688065752,-0.8636313445954924,-0.44939154437492557,-0.42746494022004883,-0.031200716605350398,0.019359162284837434,-0.7869527072192514,-0.643793367643305,-0.9823377803026923,-0.29990689359232225,-0.9618912908342077,-0.6777350550232745,-0.9274433902777083,-0.2675168218850943,-0.7499792044747188,-0.39899669584513003,-0.7082947094011651,-0.5509885763996145,undefined,1496112992386
903d185fccf839df,0.008234754347947466,-0.38673292309775026,0.5935832385867413,0.6497744344814175,-0.557979686528367,-1.4657726803256799,1.7869129781976212,-0.8433626977916032,-0.44209396871883216,-0.4553039143093876,-0.017754736418931636,-0.00821623715849711,-0.5780623328877006,-0.646570874932702,-0.9749693401481794,-0.29990689359232225,-0.9706026187240496,-0.6804328889412568,-0.9307388881945062,-0.2659461809072917,-0.7511115737554316,-0.3979841198016745,-0.7112145646555521,-0.5544654974272127,undefined,1496112994393
903d185fccf839df,0.008234754347947466,-0.38497187810338607,0.5942216306036929,0.695988407888593,-0.5578356867818316,-1.4651857116857947,1.794997002425043,-0.7905733247724813,-0.4440137385315335,-0.4840524026584631,-0.013713388462254414,-0.01788457351811195,0.40111129679144386,-0.646570874932702,-0.9728640799465857,-0.3120305371302575,-0.9609259165296937,-0.680388558318905,-0.9315225310188112,-0.2734914190951983,-0.7531253149560347,-0.39737613077767403,-0.7075662441247768,-0.552012360958227,undefined,1496112995331
903d185fccf839df,0.006848741049731715,-0.38673292309775026,0.5884791520945217,0.6986019957825352,-0.5303523036868851,-1.4699629813148265,1.8057318706388639,-0.7246338328758799,-0.4491183026760154,-0.4409989391647139,-0.01972463453426468,0.015539829143482346,0.40111129679144386,-0.6447192055648997,-0.9781272451750374,-0.3221336063873787,-0.9609259165296937,-0.6718644160294756,-0.9280451160314537,-0.2871036452466601,-0.7514715968641605,-0.3938524925575116,-0.7004569251582086,-0.546362876718928,undefined,1496112997206
903d185fccf839df,-0.16363103265244475,-0.2816571215220525,0.3613473031907513,0.47719525530000045,-0.5307225903726847,-1.5091850394737067,1.7910023272974387,-0.9040681675835882,-0.4021229197016327,-0.5069379640560582,-0.024094642134576582,-0.0333492785432534,0.3662962344028521,-0.6789750662053873,-0.9770746077120068,-0.18877342854356557,-0.9620627153399242,-0.711388317597592,-0.9211812442861657,-0.24140105941786563,-0.7576392022970567,-0.38270414870987224,-0.7169841657786408,-0.5419308805462291,undefined,1496112997967
903d185fccf839df,-0.08740023223975892,-0.38086283157252104,0.2796814110413395,0.5077780761965387,-0.5925087769359253,-1.4597213164743568,1.755576204509075,-1.081675664342099,-0.3127151531016901,-0.13667843557146894,0.08299875481044262,-0.40662407836343334,0.6404648507130125,-0.6400900548092494,-0.9528640712202773,-0.09784610200905121,-0.9148594152974087,-0.705574674692713,-0.9438439145627965,-0.21667115631383796,-0.7603822480667685,-0.3968040804426796,-0.6832638295894745,-0.5453064167719918,undefined,1496112999499
903d185fccf839df,0.18287270596641014,-0.17599436340421815,0.2005683245488857,0.137656671690501,-0.5392700069002481,-1.4342557456317584,1.7140463146904814,-1.2438492641031356,-0.3301443258345984,-0.002108947110225084,0.08743767284548054,-0.46513721721680606,2.999185327540107,-0.5632458181354703,-0.910758749392664,-0.09582552772823712,-0.8248817024907658,-0.6020563767994707,-0.861155604178878,-0.16634903426639416,-0.6866990014447095,-0.3858454237438306,-0.5722535875720586,-0.42775259299374696,undefined,1496113000988
903d185fccf839df,0.21890898270920023,-0.312182018336334,0.6261219170431157,0.7357519314126688,-0.45699471728779817,-1.532705699042747,1.7344457111569618,-1.2589615970755965,-0.4565008115038638,-0.4211751472032459,0.11085896030746825,-0.45793931656881043,1.4977857620320856,-0.5632458051846957,-0.8591797272089441,0.07996736010126705,-0.7372749524065478,-0.5208680400844455,-0.8161591135594254,0.028256520360759728,-0.5991476675389316,-0.4036199509054056,-0.5069024891906712,-0.36987231684636573,undefined,1496113002532
903d185fccf839df,0.3478083574649041,-0.3726446215988216,1.6762884752281386,1.4819422879707433,-0.052581684422148965,-1.512844277222838,1.8161090751064106,-0.48235205587852337,-0.34372675035598227,-0.3424972598898679,0.07356328623564831,-0.24252650960494052,-0.8739903631907309,-0.4984374744424235,-0.7391795865042878,0.3305228247628045,-0.6074738878991199,-0.4693622107507765,-0.776578153188299,0.3202880396765886,-0.5084607428568279,-0.3730182869581124,-0.39687659107660794,-0.35324353258979363,undefined,1496113003993
903d185fccf839df,0.31038599841307885,-0.36090432163639385,1.998484570391872,2.0156501116077887,-0.02337030626127028,-1.5214321813189182,1.7415382837657623,-0.9060866790538522,-0.3389760752654664,-0.017464055578392,0.0681093287084905,0.05260126949562469,-0.9958430815508021,-0.3178998438271361,-0.7381269343167897,0.34062579509340024,-0.5946554344865462,-0.3902637449233075,-0.7589601839330102,0.39184461559817063,-0.4514151027207286,-0.4118321956780617,-0.3932043561386076,-0.39806305292609,undefined,1496113005497
903d185fccf839df,0.471163817049384,-0.4301721498707023,2.3812913114452887,2.3155824901545845,0.08564779925213602,-1.50441010035735,1.778789489110374,-0.5810913554109159,-0.3433962700155958,0.02770031580428808,0.08249041822395753,-0.09768482353731774,-0.6868594028520499,-0.22716818078795498,-0.7160216727511213,0.14058559192330405,-0.5598155221666564,-0.22018620949558557,-0.7184836328585062,0.5768261381057979,-0.33280696177550007,-0.46170407749679276,-0.4366748889920143,-0.4540875837291472,undefined,1496113006986
903d185fccf839df,-0.13729677998634546,-0.43193313640908176,2.3812913114452887,2.3155824901545845,-0.3533251704774172,-1.463017189531362,1.8293212208017897,-0.3458131772644706,-0.4354499694101699,0.12009504192614885,0.20273370063281507,-0.07277424627010969,-0.33870877896613194,-0.289199049568541,-0.8076006976629905,0.12644127517802936,-0.6283202901136966,-0.23181349418693725,-0.7804543860163693,0.5281208566804347,-0.36586771423466635,-0.4421498649297896,-0.44858237589553956,-0.4534400675022531,undefined,1496113008483
903d185fccf839df,-0.4671681519941529,-0.3943641180733283,2.016987010994643,2.015798902117369,-0.7788958845138116,-1.382281098543318,1.8006011162248767,-0.49259436863469847,-0.6222484595972119,-0.7213653037112122,0.1920091369046835,-0.13083073365085654,-0.6128773952762924,-0.35122986654602883,-0.8907587112174203,0.20120386614242336,-0.7405943156556247,-0.2863781361971165,-0.8523046368967332,0.3475432862452549,-0.4472643463975078,-0.406498952684184,-0.43800236801494136,-0.4697676416269819,undefined,1496113009985
903d185fccf839df,-0.44914997911734816,-0.4800684247110202,1.929579402746908,1.8908181103315493,-0.7491907979484027,-1.37207437096692,1.7090312747714602,-1.0567025727279813,-0.5881131972461164,-0.4052041202407183,0.17209990608892292,0.02983086987022734,-0.7826008244206774,-0.39289237875617655,-0.9581272143620275,0.08602922426731698,-0.8416798496553469,-0.28164109179617086,-0.9177807936250967,0.25579934723968184,-0.47282700170588365,-0.46058861317887245,-0.5373970265238259,-0.5522277570684458,undefined,1496113011491
903d185fccf839df,-0.27312622123312813,-0.6397367380239762,2.161177200262896,2.0943582441876196,-0.7092617233314026,-1.4152211984940333,1.830996413726426,-0.3552706717014491,-0.44812502983021035,-0.5986359909866374,0.02912135612752952,0.0622975108054429,-0.673803754456328,-0.37807904971530704,-0.948653514005921,0.0011635781781625587,-0.8119462347578673,-0.2788735949828273,-0.9563472142964846,0.3826055446148012,-0.45827920448343146,-0.481541868472916,-0.5238618589732609,-0.4663325609811677,undefined,1496113012993
903d185fccf839df,-0.2939164552117742,-0.6919810728567798,2.1222586678281963,2.170789094745091,-0.7059188684150203,-1.4627400077245556,1.7973795996492583,-0.6530769777355208,-0.3737856859932385,-0.7284506297656079,-0.008786108902064957,0.09546051544561049,-0.8087121212121212,-0.3382681874467998,-0.9518114484817143,0.15068861878334291,-0.7283805728676703,-0.24455537338328695,-0.9699839993618882,0.4088137008375766,-0.4398318902120834,-0.45876068414668886,-0.4539162872261113,-0.4398466458518477,undefined,1496113014517
903d185fccf839df,-0.3798492797011508,-0.5235075930279876,2.570780903674364,2.6437917005972293,-0.7577073472942224,-1.5608359177837723,1.876581470175539,-0.3490827380926124,-0.3491644043023471,-1.3886632623647293,0.00264909499920402,-0.07577835254680029,-0.852230949197861,-0.217909801572007,-0.9507588036564498,0.24969841202944282,-0.66072011351005,-0.18601997526659628,-0.9831100167011099,0.33648720167439394,-0.4211201942676641,-0.4731829656989828,-0.40456716295915157,-0.41766133105686754,undefined,1496113015985
903d185fccf839df,-0.6681403562787149,-0.4882866346847196,2.56184875231298,2.3668198304223944,-1.1677569496809173,-1.5929770904309912,1.8130374492099253,-0.9726375785743001,-0.4819255662662688,-1.098316644526405,0.010241304114755038,-0.014495449358112962,-0.5998217468805704,-0.23920398311326554,-0.9486535213681548,0.1607915891139387,-0.7325719433097717,-0.1673567901164422,-0.9811509096923426,0.3817124347789167,-0.41067009428032336,-0.46865758514667794,-0.42945913698454663,-0.40750649562305796,undefined,1496113017488
903d185fccf839df,-0.5905235425678133,-0.4788944531707621,2.6996593417398573,2.436121410953015,-1.1235078817556168,-1.6496172015422186,1.8463649833348101,-0.8538442116049126,-0.4937090097796078,-0.9256449287284408,-0.07097635492066594,0.001749672122265063,-0.5954698640819964,-0.2938281485210932,-0.9676009294426017,0.11229709975636232,-0.719311382608232,-0.18120060577035427,-0.9657369347988385,0.3276792917272437,-0.4298902787192889,-0.47832399437799444,-0.3715354728631779,-0.4137303851854861,undefined,1496113018997
903d185fccf839df,-0.578049353873052,-0.49474385812003957,2.4291422493783217,2.2699382600517493,-1.0572165671874278,-1.6563952876272257,1.8656388330846654,-0.6897975356353431,-0.5003312914228082,-0.7358169206121327,-0.09863188204544703,-0.008565168873146463,-0.5388953877005348,-0.2216131273568371,-0.9686535374566971,0.07794667276156682,-0.7089044511095641,-0.19319520046415475,-0.9648903204258439,0.26642427401874025,-0.4521928299140111,-0.461513064415638,-0.4156042403127627,-0.4459979490408991,undefined,1496113020513
903d185fccf839df,-0.2509499049454469,-0.37147059160257884,2.410639808775551,2.3886750447363325,-0.6480721123337313,-1.5897837051046222,1.8211556671675055,-0.726732006598361,-0.4113636852492609,-0.6075207258296709,0.12595710308382357,0.035057141155562535,-0.7173225824420678,-0.2956798502658318,-0.9844430331420521,0.10825580987112648,-0.7597753973716256,-0.24500501142653858,-0.9965508891901459,0.32732512567802957,-0.467709824302302,-0.46112997029919545,-0.559049097966173,-0.4558044426283064,undefined,1496113021997
903d185fccf839df,-0.20521143159891733,-0.3773407415837927,2.216684522071208,2.2180463844051928,-0.4560072883295732,-1.5723842883673917,1.8836030493516804,-0.24383392409879467,-0.24750522149574264,-1.2051837654197122,0.22972153034924528,0.032483421793191664,-0.6433405748663101,-0.2271681289848568,-0.9581272438109627,0.20928630458928738,-0.6710225782954674,-0.20232730195263784,-0.9684726878516192,0.553851655170959,-0.40268464027489964,-0.4581199467938951,-0.5150184109061928,-0.4352754305129846,undefined,1496113023503
903d185fccf839df,-0.2079835272061683,-0.34916402167396615,2.1509692814154064,2.063146724329599,-0.5051832048562273,-1.5248351998103198,1.820106377942435,-0.5853527777512146,-0.23736808051218625,-1.3374500475716913,0.15135654882133115,-0.02487787449450051,-0.678155637254902,-0.09292223904001475,-0.9381271835490177,0.37901739891454544,-0.5604132199234833,-0.15885164349660855,-0.9526598953131482,0.7455930978142696,-0.33816999601452213,-0.4449744812615021,-0.50965571565992,-0.4379298433654325,undefined,1496113025027
903d185fccf839df,0.04011319822854871,-0.4554137363339373,2.208390254452876,2.0584224208670454,-0.5100277631620437,-1.5459800339455811,1.7975321261551058,-0.7373227641012496,-0.27256918066449853,-1.452221121466846,-0.15833821242614077,-0.041134240439688295,-0.6433405748663101,-0.11977137040619479,-0.9033903018759173,0.6315932682685678,-0.5676588344547377,-0.1680660759271074,-0.9284439318474194,0.8040455966341371,-0.32856597063256143,-0.41718834355609624,-0.49789988953885156,-0.4464464153787704,undefined,1496113026502
903d185fccf839df,-0.0028532830269590824,-0.4794814681688835,2.117154581335977,2.0386899449558196,-0.6496355336143624,-1.6298256578456707,1.8744039782423347,-0.4331784907126073,-0.3985092224987683,-1.0993073753828024,-0.341515995532673,-0.05238267378190302,-0.43445020053475936,-0.11699386959218494,-0.9044429393389479,0.702314569347726,-0.5343879330204023,-0.15790803542573384,-0.9013102997570299,0.7850747107000159,-0.31979788052727304,-0.4395662740987069,-0.44551774684407336,-0.42690074538377165,undefined,1496113028010
903d185fccf839df,-0.1012603307165067,-0.5164634715065156,2.617355565847393,2.46697040897715,-0.650129243575298,-1.68502396735814,1.9170515486745225,-0.25039561061277976,-0.4768756567296418,-0.39482212956710105,-0.38470746939819317,-0.11222348764823906,-0.7260263480392157,-0.07533135738203722,-0.9139166176083531,0.6962527758434799,-0.5192108069494619,-0.08835965046872493,-0.8962166229374889,0.827158664124063,-0.2746974360490953,-0.4562019245143773,-0.4020869674218871,-0.4707728009224284,undefined,1496113029491
903d185fccf839df,-0.3798492797011508,-0.48241654315949045,2.531223979222713,2.37971538414489,-0.8209438210088948,-1.7184438896572178,1.8530289168344285,-0.8043713507326525,-0.5830244158235097,-0.3108225430263797,-0.2582203188464603,-0.06022008848933346,-0.7086188168449198,-0.17532138668639174,-0.8760218750817973,0.4153882729989081,-0.5790219503311178,-0.15787637579000613,-0.9115256440101194,0.6561897238089139,-0.34479248202650775,-0.4437876418655256,-0.4198133794939007,-0.47775431554039666,undefined,1496113030991
903d185fccf839df,-0.45053606142638336,-0.4518917632571783,1.9850864704182705,1.9646941025046705,-0.8872659930162897,-1.694811431311759,1.8691128126259573,-0.7244850507704165,-0.5171610999079109,-0.28074108363142847,-0.1799494468616322,-0.03752318294577281,-0.6999150512477719,-0.2549431630265044,-0.8486534188387421,0.4315530933631931,-0.6710128891925298,-0.16438664224471164,-0.902758640581115,0.6992745706539607,-0.34081693888292786,-0.4593472103243497,-0.4466980808785706,-0.46658370439023106,undefined,1496113032503
903d185fccf839df,-0.4533081225282246,-0.4718501562813361,2.089082105628769,1.92536791952183,-0.8688443091942816,-1.6759632278272292,1.8348464446878017,-0.8864909625910078,-0.4215390542943784,-0.7393833444532176,-0.2305638329772396,0.11619032549480869,-0.8609347147950089,-0.1780989652050489,-0.88549556807567,0.4436767934305714,-0.6211885991815825,-0.10399569138139522,-0.9106300540652573,0.760483391316412,-0.30100336231599933,-0.47971810735117576,-0.40184121643773363,-0.46537967832496513,undefined,1496113033990
903d185fccf839df,-0.2856002719062504,-0.4653931082139702,2.2020104004745513,2.059796368077605,-0.5136380448630778,-1.7150758125560526,1.7713971165497937,-1.2077623087123694,-0.4229681236558488,-1.0497022465192583,-0.20908677243846033,0.24825459039336012,0.4185188279857398,-0.07347970744039671,-0.8865481760897654,0.45984167032429946,-0.5644352419824583,-0.07917688593465934,-0.9161645313647189,0.9485446081635973,-0.2530192004054483,-0.45142872985560056,-0.14209601976114472,-0.4639633453008348,undefined,1496113035533
903d185fccf839df,0.1759425704645119,-0.5035490246358757,1.9729641379307743,1.8477029932341622,-0.2612373312196562,-1.7497558531637183,1.8075464420995515,-0.9423887241795561,-0.4668905564750852,-0.7661476582227895,-0.14483988000479767,0.09705226543631428,0.7100949754901962,-0.1318072763377017,-0.8718113325919087,0.6053254493089655,-0.6108638960484815,-0.16298072757455748,-0.8623940385907447,1.0707466717099707,-0.255801460609459,-0.441845151452647,-0.14700648619405432,-0.49557844392087735,undefined,1496113037015
903d185fccf839df,0.3505805220829746,-0.564011686354348,1.7847508214617032,1.9203381337111505,-0.20628084924441592,-1.7563336238850058,1.9578740420499512,0.018894768474799522,-0.5105205129213918,-0.8108840642733934,-0.13586595677548235,0.10261035171045961,-0.19074476381461675,-0.08551556156880545,-0.9107587420304302,0.47196531386223467,-0.5712998112178505,-0.1488265980237266,-0.8733440483467919,1.1361284713979987,-0.24048557544119378,-0.4509601619839522,-0.0820774588816523,-0.5051817121939383,undefined,1496113038486
903d185fccf839df,-0.13175265778266299,-0.568707806339319,1.9876385136643802,1.818170689795229,-0.47958210900053977,-1.6998332696583613,1.843885098571506,-0.8123695534906534,-0.4588254970642233,-0.0846807323354171,-0.06928237787147612,-0.09965535354983183,-0.41704266934046347,-0.09755138979566509,-0.9065481995405416,0.3527494668960571,-0.5820194574137796,-0.1360277184696874,-0.89296310607558,1.0670202496486072,-0.25303912626464664,-0.49565695402219073,-0.08309215848150833,-0.5257349127125645,undefined,1496113039998
903d185fccf839df,-0.33411073734380176,-0.488873649682841,2.116516697592924,1.8999841126821726,-0.8085084090902925,-1.6631570699958589,1.806933695011837,-1.0974076883162671,-0.3436808406350759,-0.474852156702206,-0.10416856653510426,-0.017725194755219685,-0.8783422459893049,-0.18920892960876462,-0.9202324497487705,0.5164185981287398,-0.6559471779023693,-0.23779178966871242,-0.9058442347099138,1.0262913610258475,-0.315734500328262,-0.501959613161577,-0.053992486217821455,-0.528890179808681,undefined,1496113041503
903d185fccf839df,-0.28975841531712687,-0.524094608026109,2.215408500448153,1.9057048053694312,-0.7881118738055152,-1.6321828469030553,1.8261996461854857,-0.9023186414314545,-0.3505671053110525,-0.3842102513523319,-0.023566850856661988,-0.07190594974676208,-0.8261196524064172,-0.279940670352593,-0.9297061280181756,0.38912039750986277,-0.6853091727204975,-0.23055956863138388,-0.9087898920951121,0.775389088608538,-0.36359450068758425,-0.5190879055997439,-0.3656745951460036,-0.5406733277951433,undefined,1496113042986
903d185fccf839df,-0.3687612078208345,-0.4336941814034459,2.375549595346966,2.0870744481825887,-0.865666026690843,-1.6036939214944068,1.803330848030054,-1.0386627610677333,-0.3986260446464686,-0.22677216593739116,0.09015965293470797,-0.04145548538518328,-0.6389886920677362,-0.31419650509153146,-0.9718114719324903,0.07996731770418475,-0.7244637383497908,-0.21629777863386077,-0.9517223238913198,0.5758406320776888,-0.4121364014425284,-0.5099596201471436,-0.44333269241336104,-0.519914490073581,undefined,1496113044487
903d185fccf839df,-0.3590590802279145,-0.4700891697429566,2.7098672605873473,2.624560974637095,-0.8020901316336357,-1.6495939085420785,1.8643081569840285,-0.6910970290858441,-0.4521687265135674,-0.2610011374346945,0.061096558325110115,-0.08274161378465221,-0.847879066399287,-0.26975649206737384,-0.9328640183205661,0.22343059306984056,-0.6730579312348335,-0.21128842234434345,-0.9436200165107529,0.5546369727789261,-0.41042945009228093,-0.4824323099022194,-0.4239069430890962,-0.4881049189466559,undefined,1496113045979
903d185fccf839df,-0.13175265778266299,-0.5111802780674384,2.0240047487160204,2.0514766342865256,-0.6598800890729919,-1.7095205746172495,1.8435379503727607,-0.8840802542626651,-0.6172786169841132,0.127199218086003,-0.0577975875385742,0.02970362237640322,-0.9305648395721926,-0.2854956719806127,-0.8897061032033249,0.255760262063132,-0.6257420690055087,-0.1551848761112811,-0.8876525269076839,0.617647412433643,-0.36317279900736915,-0.4457968555431663,-0.36018721265015335,-0.4157841977939089,undefined,1496113047533
903d185fccf839df,0.26603350385935526,-0.5229206364858509,2.0125208082454757,2.0892316846497607,-0.2821070166142987,-1.7331111097274001,1.8600768053060655,-0.6847986557185887,-0.46519143721152123,0.37813223748669617,-0.013727092245699412,0.05729122899281002,-0.8565828319964349,-0.27160819381211254,-0.8591797419334117,0.29617242603273053,-0.6359137017011394,-0.15662878816666637,-0.8312442366901192,0.6541417281413421,-0.33741877713138985,-0.47214742452605674,-0.32856223322888506,-0.44582114056277833,undefined,1496113049003
903d185fccf839df,0.8107371441230627,-0.5088321888469606,2.0750458677751653,1.924443826056387,0.03076331148668814,-1.7660442232792217,1.8730917141703889,-0.568001521686174,-0.4696055337501996,1.0918650339539215,0.010717186085068236,0.01322529518829597,-0.8783422459893049,-0.2234647772984776,-0.8812850329480152,0.5952223941842051,-0.5947455174720154,-0.16127716955671195,-0.8220784133161328,0.7872612926189256,-0.30907746666975233,-0.49558297004700635,-0.18265015342428806,-0.4856843529284186,undefined,1496113050519
903d185fccf839df,0.8828101116735597,-0.35914321818604505,2.1280011463373674,2.1279947355864848,0.399176412839813,-1.7879367431522235,1.9067243068064588,-0.21180509722362303,-0.388708069737051,1.547882710444998,-0.050679634775483484,-0.062216093931557026,-0.8870460115864528,-0.18643144174552934,-0.8697060650280812,0.8336540315871173,-0.5876370662939873,-0.15929495950895134,-0.8092812464612555,0.8125301417578297,-0.2919872031756997,-0.534991624098524,-0.07637034179316689,-0.5076530682618301,undefined,1496113051981
903d185fccf839df,0.8855819312375328,-0.4066915207178544,2.522929965741331,2.7609186982967495,0.3441993693490683,-1.744449846218189,1.8236250560243152,-0.7217685059068407,-0.4505974753913459,2.4449603517783665,-0.034622699207566415,-0.024692876062583004,-0.6563962232620321,-0.15124973023267246,-0.7907586160502414,1.0074264157976112,-0.4811113215472953,-0.09156412395588467,-0.7636410479137463,0.9333617441710507,-0.21559468703562648,-0.543701371473935,-0.13930826357168422,-0.531863987904802,undefined,1496113053494
903d185fccf839df,1.002007324330934,-0.42606301565586024,2.3474766113658596,2.4954171499649704,0.0900397953824724,-1.7526371223267327,1.7901923347366133,-1.0148432960076699,-0.4528896807130994,1.8351713861713297,0.025967561798127023,-0.03828098381675977,-0.8130640040106952,-0.11514219374899534,-0.7612848775188913,1.0235912644266176,-0.43721921219277116,-0.05617563332459866,-0.7474924072420166,1.0064273703984437,-0.17276169307254632,-0.5408601729456038,-0.18986091750640266,-0.5457843214126604,undefined,1496113054995
903d185fccf839df,0.7248045266661445,-0.5041360688619895,2.275381770868682,2.3338041252309343,0.0603655535229527,-1.7650706011964576,1.8618545561138167,-0.5826549070455349,-0.4190651029279842,0.8580554492250619,0.022835031077773835,-0.08280845987606737,-0.8783422459893049,-0.04477882252637979,-0.8286534027501999,1.1609926332291414,-0.3751029378216746,0.008825701670875626,-0.786226751802639,1.1925483795653478,-0.11733848946290286,-0.5363372568491415,-0.030071607848025775,-0.42577959535758625,undefined,1496113056493
903d185fccf839df,0.25494539747362926,-0.5017880088695039,2.614165384721281,2.5731001967655827,-0.12886041202700677,-1.7878505622529712,1.8210163025111177,-0.8833001504269381,-0.3541002819346222,0.07200829068475494,-0.02445693049240565,0.037173424673568475,-0.6346368092691622,-0.04477892613257617,-0.7833901464467934,0.993282127317058,-0.37494596886401127,0.10017841567339783,-0.7878989902444563,1.0973243899638034,-0.08561370161588298,-0.5586270027383838,-0.02106463608677549,-0.43977620477703167,undefined,1496113058043
903d185fccf839df,0.23831323789504022,-0.49650484465841904,2.3213185492986583,2.476015051492465,-0.3259446574522673,-1.8020519336822554,1.7394476057249906,-1.4864724050350162,-0.32631733968277754,-0.18988816925592228,-0.1327555143409454,-0.03007928662467174,-0.517135973707665,-0.12440057296494332,-0.8023375545212402,0.8538601135719165,-0.4685995629466487,0.05481554173448233,-0.8053700269117633,1.0655112010121222,-0.12216866564649619,-0.5495921540396279,-0.06389854053632867,-0.43446256793506904,undefined,1496113059542
903d185fccf839df,0.12465997491429986,-0.5822092097520957,1.9857241000243737,2.122918622390375,-0.6127098861115277,-1.7308098227410473,1.822078728445126,-0.9863251753801638,-0.4310053149929359,-0.31020472687098144,-0.05945640075534935,-0.00799154294294027,-0.5737104500891266,-0.09107058909837425,-0.8149691378175034,0.6457375567491209,-0.48920571073897606,-0.0882456581137118,-0.8501706085822657,0.8553070228306691,-0.242746638748982,-0.5366096079058459,0.038394957413709296,-0.4516261510349384,undefined,1496113060994
903d185fccf839df,-0.12482266030240369,-0.6133210046525291,1.6864971564864766,1.778239722294195,-0.8020798569134564,-1.6744771718353777,1.7723543584635497,-1.3271804667192066,-0.3817683098835344,-0.5936152545130793,-0.029583178456492557,0.07122731671217483,-0.7521376448306596,-0.08551558747035455,-0.8665481452767556,0.47600654721802743,-0.4749335464239993,-0.15574217374304175,-0.8894017274858819,0.7225108292749692,-0.3099815435809565,-0.5354547797694891,0.02748544065426249,-0.42476856153896514,undefined,1496113062493
903d185fccf839df,-0.46716818649956265,-0.46363206321960604,1.7541263025083857,1.889451684658482,-0.8496512045380666,-1.6953145459897823,1.829297553094378,-0.967304901573691,-0.454561327901251,-0.29218277444335666,-0.11229399624941491,-0.06755562077400162,-0.7303782308377896,-0.0864413865396257,-0.9191797975612723,0.2779869324611061,-0.5026800722280095,-0.09436961834270599,-0.9394149325071102,0.5701124163893225,-0.3331398746369942,-0.5420679562883591,0.0025416826709986854,-0.6160369944541868,undefined,1496113063991
903d185fccf839df,-0.42558778755309007,-0.46480603475986415,2.053991383926285,2.083594103997841,-0.8253049543286259,-1.7380654025245867,1.8749062785603046,-0.69661114004568,-0.4357401099925907,-0.19846747571025214,-0.2697991509865357,0.0028532779918440296,-0.9827874331550802,-0.19476394418755888,-0.9097061119296334,0.1749359623886565,-0.6216550999969045,-0.22109815520115647,-0.9387292446741721,0.31266580453618,-0.44139731277145344,-0.5240724028596253,-0.37670363398721596,-0.54409490630349,undefined,1496113065476
903d185fccf839df,-0.41865768655660157,-0.387319967323864,2.061009884058511,2.10748844598933,-0.802501560499431,-1.7717066027980726,1.9657844822265436,-0.146068129274949,-0.360201374864424,-0.29030766532544827,-0.2682162809702325,-0.03646781877504718,-0.9914911987522282,-0.24105563305490604,-0.9128639801453224,0.19110081101766296,-0.6467086005701114,-0.25838652835431014,-0.9365322456551695,0.304874193402027,-0.45742668945557113,-0.48967670482690734,-0.39808365218725783,-0.5444807243834997,undefined,1496113066976
903d185fccf839df,-0.06799601155932865,-0.39906029651428404,1.9417014810974547,1.8689184783288775,-0.5105420530012662,-1.6888532347024068,1.8786116648316904,-0.45923303634534063,-0.22820515942126562,-0.48834515762365055,-0.28356057444403054,-0.052008118756991746,-0.9784355503565063,-0.2623498145961646,-0.9128640095942576,0.2901106042637629,-0.699527531201045,-0.17114389471536537,-0.9224336718671232,0.4351758361702779,-0.39470354956354986,-0.5098160342523735,-0.3742321284698053,-0.5423169265637031,undefined,1496113068475
903d185fccf839df,0.25633144527725477,-0.4407384198368872,1.9027826945258057,2.000794057080825,-0.3470920481307251,-1.711123091648538,1.8107600412435712,-0.9045533418345074,-0.21564086217785242,-0.1404737403836777,-0.2474408507142378,-0.03309078508715556,-0.7521376448306596,-0.4280740384659352,-0.8812850476724827,0.32850217982018654,-0.7808376077318603,-0.17034594128729433,-0.9173259996824663,0.5867581354994266,-0.36664617882985046,-0.5331679673699261,-0.4252663250906021,-0.5363129240439278,undefined,1496113069970
903d185fccf839df,-0.059679862759214664,-0.412561641471076,2.0495254353140675,1.9448632065057996,-0.43196962458133675,-1.7370871218157005,1.8609551607104453,-0.6492797160892563,-0.23922687677774623,-0.2613505627345771,-0.23897000024840453,0.005298117789913825,-0.7695451760249554,-0.491956634892809,-0.8981271734586346,0.4153883012636297,-0.8241393939805733,-0.23516361794847143,-0.9198098681553929,0.5194515279766433,-0.40953428166479017,-0.5390896695834655,-0.4365054681037049,-0.5606325444407977,undefined,1496113071523
903d185fccf839df,0.5002699582902759,-0.4225409548951242,2.0233668649729677,1.9448632065057996,-0.04074285120193196,-1.7836812239614936,1.8942748104006675,-0.3631278748551428,-0.18403672860680592,0.5239659587641723,-0.0665837303946774,-0.0475917338802818,-0.8043602384135473,-0.39289237875617655,-0.824442867622545,0.44367676516584986,-0.7280990378910649,-0.19525973826481144,-0.7772218584676681,0.6986894387602115,-0.31567709464392313,-0.3693979725856072,-0.2948883696218204,-0.30617222825636875,undefined,1496113072976
903d185fccf839df,0.4905678652027656,-0.49767896233863884,2.1375709273048553,2.0964705217473663,-0.07145593706536839,-1.8061257745053998,1.8524240814169433,-0.7413177927278922,-0.17994115025950652,1.2173160090362969,0.0958200835707129,0.012790457409941057,-0.8174158868092692,-0.3623398439005191,-0.8591797198467104,0.37093487567351685,-0.7084530579073761,-0.18556400077495788,-0.7794328512062972,0.7311647561542746,-0.307193575369205,-0.4135952413568712,-0.23627989021655696,-0.32304876923408665,undefined,1496113074481
903d185fccf839df,0.5390783306403168,-0.5047231130881031,2.390861600686675,2.2907354658566708,0.1004077775171234,-1.8376869662285746,1.8747931949163246,-0.5933745580872319,-0.0933532565552199,1.1404943683638713,0.2823656347531305,-0.07457087471139796,-0.8304715352049912,-0.19291232014746745,-0.8781271205589234,0.4477179702569211,-0.5761642098268103,-0.13414049831385508,-0.7815318933498782,0.7855058713458275,-0.2693744277929611,-0.40449974034190433,-0.07316984116364877,-0.32056069297527195,undefined,1496113075977
903d185fccf839df,0.3076138337950084,-0.50237508232361,2.414467873644716,2.2767134720343516,-0.2772624439927535,-1.8077492544536224,1.8820014846388953,-0.7047957557721335,-0.39163195485458563,0.7057806514141816,0.04624576183131693,-0.04669089089137033,-0.9610280191622104,-0.11421639467972418,-0.8697060576658474,0.5527895852719886,-0.4765935923679343,-0.06787257762253186,-0.7754376712047506,0.8684264975431666,-0.22267865479317886,-0.4094186787557365,0.10999927967290733,-0.3410941057127876,undefined,1496113077483
903d185fccf839df,0.21059310995236413,-0.44836967326844995,2.5682288604282544,2.5675088695492607,-0.1558089400362548,-1.8124892541893682,1.8748536696588902,-0.6391470683344315,-0.38598497471013293,0.2198741444956038,-0.16637212593862843,0.024936895068953937,-0.9827874331550802,-0.07440553241121696,-0.846548143912681,0.5851192260005585,-0.444758805901405,-0.029646928478460902,-0.743161383462559,1.0153276660910666,-0.1664858784365627,-0.42931645737541774,0.11426511451410704,-0.37835223499616416,undefined,1496113078975
903d185fccf839df,0.11911602523766605,-0.5781000755372536,2.4706128250591313,2.427245749996051,-0.07078737001671656,-1.8548814075906084,1.8536679577666926,-0.8265539144524195,-0.37374882479468013,0.505836568368924,-0.23340081650476668,0.004027347317953261,-0.9871393159536542,-0.10588386633614555,-0.9002324115735268,0.5729956389920664,-0.4933230450803117,-0.09367932388303739,-0.8806277276191414,0.8924788653858092,-0.25919303853062003,-0.5293682659608322,0.08922487922351544,-0.592887569521318,undefined,1496113080495
903d185fccf839df,0.1606964931949581,-0.6373886488034984,2.6709484740156983,2.5993556703130705,-0.08171078037159621,-1.8681813632423434,1.8467910222330188,-0.871756737876303,-0.40582747154276727,0.4662645389217943,-0.20210720898672585,0.03536069426224068,-0.8261196524064172,-0.14106560375055152,-0.8665481379145218,0.613407859491108,-0.45992427463628194,-0.008912874067799148,-0.8819081436547838,0.9632501220166353,-0.19934257841718211,-0.574924615115249,0.10876622446736615,-0.5951360846315538,undefined,1496113081987
903d185fccf839df,0.19811871422514446,-0.6203651554019934,2.2881414788253323,2.2518267744034204,-0.24633335812541404,-1.8536375927632738,2.0105937516296093,0.11250143851573528,-0.4866932495463053,0.3712531793829983,-0.07876120961750438,0.051115229511488794,-0.9175091911764707,-0.2030964984326866,-0.8876008282772636,0.5588514353056778,-0.5175951064324535,-0.08559215735941092,-0.9001068494117809,0.9479286695514697,-0.24728126387944918,-0.5776033099034076,0.04591031563666805,-0.5864730787740866,undefined,1496113083515
903d185fccf839df,-0.29807446060101167,-0.5469881929528431,2.246032765264521,2.218372982170182,-0.52527117352897,-1.8072577813376813,1.9314707814923682,-0.4335004249532401,-0.4063793752913581,0.07336500474638641,-0.09904075574150661,0.004753247241381531,-0.9740836675579323,-0.24846228462456624,-0.8718113399541425,0.33052265517447527,-0.6153085666359045,-0.16321504719931432,-0.8855464865707705,0.7629471403261497,-0.3179817143428234,-0.5845057091548851,-0.10103184033519787,-0.594945217639055,undefined,1496113084984
903d185fccf839df,-0.14977083065946778,-0.521159533035502,2.1050322488484805,2.045568189003953,-0.4216016380295352,-1.786168851150793,1.8540045786332895,-0.8705029737479086,-0.5185018384273998,0.22833122669377348,-0.2567205248925668,-0.05669807118587215,-0.9566761363636364,-0.33363906259269854,-0.8876008282772636,0.22140994812722262,-0.6624427293635651,-0.20721000898025926,-0.9030105257910266,0.694254679861687,-0.35332910580135973,-0.5615039193604424,-0.297332343569686,-0.5735396309992995,undefined,1496113086486
903d185fccf839df,-0.17471913903817077,-0.5141153530580453,2.3174902302925444,2.2690212549839144,-0.5821407960455981,-1.793172874597415,1.853431285668302,-0.9282945080519124,-0.45833398970565326,-0.15192988090356974,-0.1687974891646271,-0.03766288196300107,-0.8043602384135473,-0.2891989977654428,-0.9170745668086138,0.24767779535154644,-0.6947796189027099,-0.21397359201382396,-0.8895486624839858,0.6758381386771344,-0.3573715909197783,-0.5940780022307967,-0.31167389253816585,-0.5338002310662178,undefined,1496113087983
903d185fccf839df,-0.16085900605601325,-0.5827962247502171,2.14395103542013,2.144303005099955,-0.536924870972258,-1.8163953900298369,1.9283281611157022,-0.43797206774705727,-0.472288219820654,-0.16213773473583823,-0.21203941998960224,-0.08531384497280091,-0.7477857620320856,-0.3697465472732775,-0.9202324350243029,0.22140983506833647,-0.7659078998951662,-0.30359107747215114,-0.8594833662875963,0.6155994237395476,-0.40949994141795704,-0.5108600777681436,-0.4519272774702466,-0.5199667033152792,undefined,1496113089482
903d185fccf839df,-0.3119346280885789,-0.5505102829415713,2.0137968298685305,2.0104285133559046,-0.6777669146764858,-1.7919453644980625,1.9552863099422342,-0.2680733684657927,-0.4849019278326317,-0.39937944797256236,-0.13682647578739882,-0.14611226015181297,-0.4126907865418895,-0.4354807418386936,-0.8402323412211987,0.17089470076814217,-0.8208401801914011,-0.3000066293409376,-0.8294600516293437,0.6368646757027236,-0.39961745610676724,-0.5039963339027126,-0.46667261383589553,-0.5229054343333039,undefined,1496113090976
903d185fccf839df,-0.35074293142780055,-0.5006140081012534,1.6354560374273317,1.6833010345158415,-0.8084364115556338,-1.6891350748453986,1.90837319672073,-0.46808149536457516,-0.5862717860948405,-0.41767451686902407,-0.1044328784646056,-0.11583162196313435,-0.09935522504456328,-0.36048818100810404,-0.8802324028472184,0.2173686017125437,-0.7406622827669356,-0.3754509864340114,-0.8577271664639313,0.42707625437709884,-0.47653385261535175,-0.46604872089640403,-0.44180636446022026,-0.4894543421168017,undefined,1496113092495
903d185fccf839df,-0.3687612078208345,-0.6262353346111997,1.5033876723726758,1.5687062417992035,-0.847388348230833,-1.6012225993805609,1.835517046666075,-0.794534880271328,-0.6100180924142575,-0.2904990802446322,-0.1374061656878228,-0.08769951768131513,-0.8696384803921569,-0.40770574664936965,-0.8665481526389894,0.280007577403724,-0.7257635432925473,-0.428863032966202,-0.8824468987406964,0.3161612523390648,-0.5303637871559622,-0.44782594940741266,-0.4390369628218995,-0.49287529331646585,undefined,1496113093973
903d185fccf839df,-0.45330805351740516,-0.6761316094515176,1.6456642104117707,1.328008282968491,-0.9054305397577286,-1.601432229707836,1.8781251603567313,-0.5248847848827844,-0.4794802308783927,-0.4844092370769288,-0.17924365256069746,-0.024465031851520554,-0.9697317847593583,-0.47158826537159615,-0.8612849874105377,0.21130697779662685,-0.8229632700784796,-0.4904952397383207,-0.8905771923371039,0.276002109630707,-0.5702338484626767,-0.42333692399482725,-0.5176649737451888,-0.5127217080449991,undefined,1496113095512
903d185fccf839df,-0.4311318752513628,-0.5593155079133921,2.150331143535404,1.8676708120015992,-0.7454468093717401,-1.6914456787849985,1.8979091974780236,-0.4238134560782243,-0.46041534232806486,-0.5967630966476369,-0.3120121549279183,0.03175332674409299,-0.9088054255793226,-0.46232995090952095,-0.8654955225381926,0.28202805275801274,-0.7602193296469286,-0.4447650550162865,-0.9015761792065181,0.2918009124777028,-0.5543523821624924,-0.436440264610015,-0.47809815268213673,-0.5060589720325576,undefined,1496113096983
903d185fccf839df,-0.33965485954748426,-0.54992326794345,2.6186315874704476,2.4718591433358412,-0.6701246447576802,-1.7259906256599373,1.8539335841531082,-0.7303179287844911,-0.42480558916576244,-0.40018391798416125,-0.2807998515560858,0.07406622480819518,-0.4692652629233512,-0.38455992811724515,-0.9118113794934608,0.3345639450597111,-0.6917465458080876,-0.4072170330769727,-0.9308648289184657,0.3201956452479265,-0.5365454066957976,-0.44498502347325286,-0.48866616560969456,-0.502346549497061,undefined,1496113098484
903d185fccf839df,-0.2648101069384239,-0.49004773813506847,2.200096495108444,2.206283064164808,-0.68587204598133,-1.7046664398570954,1.8061210909791794,-1.0282981743974673,-0.45267333678169175,-0.26012529204678825,-0.17462696857800475,0.08638112593036307,-0.4692652629233512,-0.4086315845709645,-0.8539165619804925,0.4093264512299405,-0.791541126711091,-0.35797206355094613,-0.9083420944923446,0.47410310825091206,-0.47785336951434887,-0.4861684465631128,-0.48853891874211725,-0.5306591594103459,undefined,1496113099990
903d185fccf839df,0.1329760892090041,-0.47478523127194305,2.320042273538654,2.2326756905696215,-0.5356185821149833,-1.6901576074539209,1.8635534206740718,-0.5819875389900282,-0.42139256581087386,-0.5893901386236371,-0.21240625713091804,-0.03714185859795609,-0.6650999888591801,-0.34567483901646,-0.8076007050252243,0.255760262063132,-0.7696147445152397,-0.25998242562648355,-0.8600571028403755,0.6868634302477102,-0.38620791897760176,-0.4688619322221602,-0.4582164512019349,-0.5450848402202906,undefined,1496113101490
903d185fccf839df,-0.052749899784365104,-0.44367355328347885,2.1413992463109692,2.1444243424384433,-0.5070140616917942,-1.7016151351144677,1.9725799195171276,0.0519902821414368,-0.4070444852049979,-0.9090652950836783,-0.01925180727122,-0.11171052722665026,-0.7826008244206774,-0.2651273413117235,-0.7612848701566575,0.3911409576583161,-0.6791978168279488,-0.21647510227489417,-0.8553552466041251,0.6794567755648306,-0.36111701110032196,-0.5134788861096561,-0.25986829679419066,-0.5529722569470823,undefined,1496113102981
903d185fccf839df,-0.08047016574868016,-0.39025507154246325,2.5018754818924505,2.3171668723322107,-0.521619752198605,-1.6763102838686181,1.92636633192191,-0.21175947898041145,-0.4823511812458101,-0.7775204388240234,-0.10421731491022397,0.01688769605073103,-0.8696384803921569,-0.29105064770708333,-0.7623375002574543,0.4861094892839017,-0.7067519549282523,-0.22544255056637458,-0.8641572346931021,0.6327994825508542,-0.369282622120233,-0.5299424150724877,-0.22836066891884882,-0.5792642053751962,undefined,1496113104481
903d185fccf839df,-0.1968953518096228,-0.4049304464954979,2.383843100554449,2.2444661432493147,-0.6547680982070195,-1.6503415980036962,1.8454997931843369,-0.7807127802796905,-0.560175878215285,-0.3797205635829828,-0.03169487300028989,-0.006121295154985109,-1.0001949643493762,-0.38548568833419267,-0.7676006507614384,0.5083361879465973,-0.6989896943064325,-0.29161547851438646,-0.8684672705356907,0.6265169197300906,-0.40058490062599816,-0.5264110033292843,-0.19856313486880453,-0.6079188414028786,undefined,1496113105982
903d185fccf839df,-0.44776403482995186,-0.46774110975047106,2.1662817950290143,2.063277205908876,-0.7121519971693814,-1.6386464874781226,1.8396774020306934,-0.8229244057778528,-0.5408739138125223,-0.15548116006064713,-0.12711088145501342,0.034637957570305564,-0.9697317847593583,-0.3614140059789243,-0.8023375471590064,0.44165617675267504,-0.6484382103645729,-0.27763233970520507,-0.8911019547922271,0.684168701473409,-0.38739427016957134,-0.5176226769774699,-0.21102731715197728,-0.5997493761221523,undefined,1496113107505
903d185fccf839df,-0.34381296845295095,-0.5340739214501572,2.0297467189512926,1.8941482419751932,-0.5440219936066335,-1.6919138563158311,1.9393680917689151,-0.19825946378932036,-0.5614968983563018,-0.02696983273993936,-0.1771094685579071,0.048287849165549956,-0.6999150512477719,-0.4438132313299486,-0.897074499184435,0.42347062665160756,-0.7563004177925619,-0.31022166885459057,-0.927828215120608,0.6520167437467392,-0.4158175934153668,-0.5496050903036911,-0.2269651131750077,-0.6290211756685371,undefined,1496113108991
903d185fccf839df,-0.2842142586080347,-0.5728169113261687,2.106308524608485,2.024662276722333,-0.4483341549279872,-1.6986896127289803,1.9720671005090638,0.008071779865710975,-0.5264404924877342,0.2852664663049788,-0.12122644821801722,-0.004274221836745673,-0.7042669340463459,-0.5502841778885649,-0.9391798430987497,0.32648153487756865,-0.8700377774793828,-0.34272233577374617,-0.9264638365469934,0.6516317827855922,-0.43622610355515684,-0.5111572889709559,-0.431191706644031,-0.6106329123862508,undefined,1496113110477
903d185fccf839df,-0.19135126411135006,-0.6062767662190879,1.738175905151725,1.7988038476993524,-0.5705282388257962,-1.718553365076061,1.8942090590289455,-0.5588583693463101,-0.4618816845062311,0.4085745784735355,-0.15736105048806834,0.013887177433334643,-0.6433405748663101,-0.5391741487309765,-0.9633904016771806,0.3305227682333614,-0.8834557318211932,-0.3699856578176919,-0.9315155344097975,0.7524916014953668,-0.4351084470919681,-0.4649622081337701,-0.4347621730238015,-0.5938810145329871,undefined,1496113111985
903d185fccf839df,-0.04997783868252387,-0.6180171246375002,1.7515740051253266,1.8476800962667683,-0.4993717900225325,-1.680686923263103,1.8101604633379698,-1.0306024237683393,-0.3248756415238228,0.35213459574406264,-0.16507848987452678,-0.005630816047727234,-0.6955631684491979,-0.5650975328309835,-0.9581272217242613,0.45984167032429946,-0.8493305321269478,-0.36086621795886753,-0.9331877720441627,0.9205194368455519,-0.40028506099721883,-0.4551178895547784,-0.42938250863500516,-0.5794976827558995,undefined,1496113113480
903d185fccf839df,0.06367535528739703,-0.6567601145135118,1.5793110860129165,1.6387510627541884,-0.4610781401223593,-1.6657005985023543,1.750629549955327,-1.381796057506447,-0.08022896540569738,0.07239310999509913,-0.1349751701376146,-0.09679217195632607,-0.9001016599821747,-0.5613941293415061,-0.9181271674604754,0.5265217663123863,-0.8059492676071928,-0.3730001371367374,-0.9125891608476933,0.9855162739838805,-0.3879330150007245,-0.44394949998271943,-0.4382990498842863,-0.6041247775293097,undefined,1496113114983
903d185fccf839df,0.24662931768433474,-0.6426717545585986,2.1012044381162656,1.8477497059132966,-0.012580606344946975,-1.6702659076121786,1.8435695310598037,-0.6132680738160874,-0.10359322012931217,0.33564742752006577,-0.09866386956832557,0.05015021175832163,-0.8304715352049912,-0.44381325723149767,-0.8665481452767556,0.676046609064516,-0.7262506210801135,-0.36889638718658113,-0.8572233961480983,1.0482495417148003,-0.35375731370873537,-0.39338864244622174,-0.4391670168328824,-0.5884107031201924,undefined,1496113116486
903d185fccf839df,0.14822223548937738,-0.5798611497596101,2.4878392440388466,2.2881943079116374,-0.159028364047514,-1.6442343300300377,1.8599321854947186,-0.4959869265387581,-0.11088260379228615,0.6328804947591808,0.028481345116318408,-0.08119318329877684,-0.6999150512477719,-0.425296576504249,-0.8465481291882133,0.5548102867440496,-0.6389891701969818,-0.37938374275237874,-0.8432437690502806,1.072794664617769,-0.35331514798133734,-0.40502193090301775,-0.39564427174003897,-0.578838357224677,undefined,1496113117961
903d185fccf839df,0.08446555476063332,-0.5188115314990012,2.878940506847544,2.7498947514949483,-0.3416817785963419,-1.5904149282318298,1.7609778407263184,-1.0548818749986864,-0.162567409318064,0.23875982932000064,0.045116284828093094,-0.04639514002630129,-0.7390819964349377,-0.32160316961196617,-0.7528637851768802,0.25980155194836785,-0.6560436421043557,-0.31256485363018627,-0.7925378788836386,1.1104438718382497,-0.30309085990031037,-0.5231252914466198,-0.37172940035912805,-0.5590619271318972,undefined,1496113119458
903d185fccf839df,-0.17471907002735132,-0.6403237530220977,2.603319327993789,2.2859030042405943,-0.549535135835497,-1.5671178773836345,1.7339644675983321,-1.2691000589091954,-0.21804117418161664,-0.4301484120083519,-0.036298100563935794,0.02727983331447556,-0.499728442513369,-0.265127328360949,-0.7876006962989158,0.16887422541385347,-0.6466678021381493,-0.30696653277031827,-0.8337490953448763,1.0284779480200485,-0.32807059489733065,-0.5130502786514359,-0.3937877048654136,-0.4749984162503727,undefined,1496113120982
903d185fccf839df,-0.16363099814703502,-0.5023750530956176,2.166281540892065,1.986119844350166,-0.6002127625393531,-1.6348754466361366,1.9097669920327014,-0.27294151590060806,-0.375583444708648,-0.4647384760724751,-0.05929275280808512,0.06302840188554032,-0.4475058489304813,-0.29197647267790355,-0.8107586026898486,0.09209096124211999,-0.7902951148423709,-0.30912606558985556,-0.8498557529186185,0.9193799607676513,-0.35790457015958344,-0.5432470252771285,-0.370435293870553,-0.4643348448614971,undefined,1496113122472
903d185fccf839df,-0.2412477773525269,-0.46010985631890833,2.3328027439061523,2.338266896578482,-0.6456344079271227,-1.6929363908968302,1.953968771074295,-0.06764252164164089,-0.5866590130840378,-0.06505604163175953,-0.10965926740973024,0.057935155542981245,-0.7129706996434938,-0.5086216397768681,-0.8128638849781435,0.21534815462297655,-0.7840988056600345,-0.33341923929699097,-0.852395596331221,0.7538312710417758,-0.40837931209914413,-0.4425872515500793,-0.448208709809157,-0.5012504542860059,undefined,1496113123975
903d185fccf839df,-0.4699402476014039,-0.44132543483500863,2.3123858896633753,2.3281573165107665,-0.7884101641389645,-1.746057019872317,1.8504859015989312,-0.9208008722670089,-0.5994668475432551,-0.17987517370223371,0.044809957536336015,-0.009591381004063034,-0.847879066399287,-0.547506677074555,-0.8233902154350469,0.08198796264680266,-0.9257250191470107,-0.41823002033807755,-0.8155503904993213,0.5296760956048921,-0.4749166563892743,-0.5021734036972265,-0.531319280258894,-0.550977835409208,undefined,1496113125485
903d185fccf839df,-0.5932955691642448,-0.4788944531707621,2.0246428865960224,2.021053169563814,-0.9496590322879099,-1.7612879153829128,1.9359730008320433,-0.46006696387768525,-0.40827816524395955,-0.1218907804229761,0.1048273060686819,-0.0031610142789215896,-0.865286597593583,-0.5762074972346992,-0.8170744127435646,0.007225428211851719,-0.8938277486414065,-0.4478808639312065,-0.8101278619842576,0.45128260756271704,-0.498430906002699,-0.5065025884988139,-0.5068071675611328,-0.5903797818732275,undefined,1496113127007
903d185fccf839df,-0.49073051608545964,-0.545814221412585,1.9251129458607916,1.8997963827316877,-0.753500510202874,-1.742647016596608,1.9767455213946512,-0.06386123978768717,-0.34165554339089493,-0.5581244672872097,0.02896147609503751,0.08367910066085518,-0.7173225824420678,-0.5928724891679837,-0.7518111918872523,0.003184251385502018,-0.8781641734178312,-0.47009049894147664,-0.8102887881939927,0.4337283800501212,-0.5126413334176844,-0.5015155682903168,-0.49137880051806093,-0.5831065220188211,undefined,1496113128480
903d185fccf839df,-0.36183114132975575,-0.49415684312191815,1.812185413425858,1.90591928959404,-0.6894103350189743,-1.6289661672509912,1.9555045883435647,0.019852139992933057,-0.47753078261535,-0.5682643588103942,-0.09009627288110186,0.07585092651590829,-0.8391753008021391,-0.5475066641237805,-0.756021697565972,0.10219404463160192,-0.9152337873532228,-0.48250306707087515,-0.7739963298402298,0.4749808142429642,-0.4986226221483656,-0.5115396294394743,-0.4284245074190307,-0.571177021411978,undefined,1496113129976
903d185fccf839df,-0.38955144179948054,-0.4630450482214846,1.4823334426607448,1.5469629101145994,-0.8332043767120082,-1.6843182094865439,1.8585357525228696,-0.7926097584041876,-0.3666854771488601,-0.4060441264288856,0.00019021659846333623,0.07049425070271728,-0.8826941287878788,-0.5030666122472993,-0.7602322474180945,0.17291537397548165,-0.8273725020074418,-0.449698419098818,-0.8007941159872684,0.4688984326265448,-0.49290385056999547,-0.5259696255191547,-0.38319573184715533,-0.5754065478732735,undefined,1496113131482
903d185fccf839df,-0.2966884473027959,-0.40727850648798347,1.902144810782753,1.866583009025413,-0.7620376355959829,-1.6748568370971573,1.794765579196481,-1.189636720469245,-0.30113127435518533,0.31329816696523644,-0.01748977297480722,0.030974671800899835,-0.9697317847593583,-0.4984374744424235,-0.802337561883474,0.10825580987112648,-0.8669856326203534,-0.48129980854730386,-0.8246742309221298,0.5374831086039181,-0.503491799463117,-0.5093153806411648,-0.38728621785855255,-0.5547257860929128,undefined,1496113132977
903d185fccf839df,0.07892150156777031,-0.4430864213733881,1.6801165400973033,1.7166745305843563,-0.49594664852358034,-1.6692573465619638,1.893761998725256,-0.4964742091947882,-0.3390123246617194,0.11437759173428147,0.08330577322822642,0.028719905396251882,-1.013250612745098,-0.5243608326408815,-0.8570744743695843,0.16483285073445303,-0.8099043344891252,-0.49297142359524726,-0.8369816208321277,0.6655365826314877,-0.47947423061853695,-0.5183048591722074,-0.28400645031718796,-0.5725640368833831,undefined,1496113134484
903d185fccf839df,-0.23293176657405185,-0.45600075133205864,1.7790085970894816,1.8495159317773566,-0.5396814353719407,-1.6006169935651429,1.9308264833101012,-0.14145196387001938,-0.34890179954608086,-0.22820363576625893,0.0618076946169071,-0.04189939496855229,-0.9697317847593583,-0.5289900092980809,-0.8854955533512024,0.2699045505436852,-0.8050181873279895,-0.5239648496534236,-0.8717487744942968,0.6635193866684314,-0.5043143501225109,-0.5179540879532365,-0.2582118287581734,-0.6161832408922644,undefined,1496113135981
903d185fccf839df,-0.1289806311862315,-0.4800684247110202,1.051037625794293,1.2135902075137386,-0.6662675089704112,-1.6090744621024977,1.8504569858073316,-0.6973234570917899,-0.5225746056103517,-0.22620769720643114,-0.1064549299581919,0.029339478873651865,-0.9914911987522282,-0.5706525215082286,-0.8791797359352526,0.1931214559602809,-0.8218885902946527,-0.5632797632496863,-0.8874846026453087,0.5676794613626184,-0.5347040561764759,-0.5364813343293856,-0.2530885897183927,-0.6360384746745066,undefined,1496113137516
903d185fccf839df,-0.33688276394023325,-0.4031694015011338,0.7103395983016879,0.9225889176593995,-0.9099973868041734,-1.5410234080842746,1.7809091300812254,-1.1162812352439555,-0.4650014591633671,0.03014700261512485,0.018019792035671455,-0.02238356019624006,-1.0045468471479502,-0.6289800256516609,-0.9223377025881303,0.3648730821692708,-0.763175012293759,-0.6299466604058949,-0.9067818072756326,0.5617356618511457,-0.5734604720187648,-0.5064000193571442,-0.18647534969229448,-0.6303787377269983,undefined,1496113138976
903d185fccf839df,-0.3756912743119133,-0.43134617986694507,1.0082907743534795,0.994866906243439,-0.9084030990059717,-1.579378992300261,1.8941196472824644,-0.45633886117635736,-0.5384484436733151,-0.04007831759102412,-0.010582135133329318,-0.02595536752415509,-0.9479723707664884,-0.6474967063789095,-0.8518112870544312,0.2779869324611061,-0.8336513691746918,-0.6458676819901682,-0.8993581906602105,0.2927556184512766,-0.6276847328071657,-0.5158140942464028,-0.42488965096852105,-0.5865597209881901,undefined,1496113140474
903d185fccf839df,-0.40756961467628533,-0.5563804913787699,1.1646032961092287,1.269927151637867,-0.6916217466307935,-1.5990773677074412,1.88825517770212,-0.4666274650338222,-0.5100092423523158,-0.0919593411810473,0.058935283086901165,0.03437926528919423,-0.9392686051693405,-0.6493483757467119,-0.8581270897459136,0.06986440390303203,-0.8721489252194906,-0.6711234624718672,-0.9070546828203014,0.16528728557952518,-0.6643431496223806,-0.5384355427966105,-0.45102688235796484,-0.5886829358793305,undefined,1496113141983
903d185fccf839df,-0.25788007495275483,-0.6503030079901613,1.608659583343179,1.4906727037953433,-0.45827013944545464,-1.667554673682666,1.7621375699122415,-1.2796030750124172,-0.49503650236226815,-0.3644727609781887,0.016060454500497805,-0.022682611444295356,-0.9784355503565063,-0.5021408390795772,-0.874969230256533,0.3850791358893485,-0.7783385183580324,-0.5985289307312395,-0.9231193605931521,0.41201657549798226,-0.5888775274607915,-0.5377541928838501,-0.3894945180763395,-0.5608310947339132,undefined,1496113143467
903d185fccf839df,0.3103860674238983,-0.608037811213452,1.9314933081130155,1.8539941577931733,-0.14619181119873814,-1.7099188764194186,1.7974401024130313,-0.9574623317383253,-0.41317806209243096,-0.9597378381408056,0.003683321189641795,-0.005598827052771901,-1.0045468471479502,-0.4919566089912599,-0.8865481908142331,0.3628524654913744,-0.7177082866278379,-0.5153140511757291,-0.903115477880772,0.5738234388340187,-0.5157496291816455,-0.5318196697144257,-0.39438309792311516,-0.5698072967174518,undefined,1496113144979
903d185fccf839df,0.5404644129493521,-0.5505103121695637,2.061647513664614,1.9332631930400856,-0.2315528125574148,-1.7480927770797614,1.8634850452602556,-0.6076545183540069,-0.37205444428056544,-0.9655882819144554,-0.030656481223452152,-0.021092441130259598,-0.9784355503565063,-0.4836241195000049,-0.9023376717751205,0.10421477436838446,-0.7961248792752224,-0.4843586220764606,-0.8637934009312409,0.6546806754147507,-0.481205722061531,-0.5201571219927067,-0.4427659780977154,-0.5759964199892029,undefined,1496113146478
903d185fccf839df,0.23276918470217722,-0.4806554689371339,1.7732666268542092,1.9289374598020121,-0.20422370964667255,-1.7717718216864438,1.941971614482034,-0.13329971790700074,-0.4607652032726605,-0.5670768379489408,-0.026104676320111094,-0.027467138871698743,-1.0654732063279857,-0.4993633123640183,-0.8444428910733212,0.39114092939359457,-0.6793032623796306,-0.4104405032635483,-0.8464273153749495,0.7928355289415818,-0.4229434462894875,-0.51417089237115,-0.3278005290028408,-0.5647665280202094,undefined,1496113148036
903d185fccf839df,-0.3188646255688382,-0.5246816230242303,1.5863290778712436,1.644857788599268,-0.5175054717928035,-1.7855958566279082,1.992837317071789,0.04277787967628681,-0.5712754937390595,-0.09901120680999055,-0.031767987752403574,0.08890444426700599,-0.9523242535650625,-0.500289124384064,-0.7949691290911949,0.21332750968035863,-0.7249908619574,-0.4624972980991905,-0.8270671394773206,0.7448539764176915,-0.45268724080084716,-0.47053413836553254,-0.3105689577095232,-0.5611787724222159,undefined,1496113149471
903d185fccf839df,-0.40063954818520653,-0.5569674479209066,1.355368909961359,1.5836359116482113,-0.5351351532138784,-1.795467173981636,1.9122626907087679,-0.5171949256921732,-0.5618001025501463,-0.13585258590593516,0.06421119609279174,0.11601348088932456,-0.04713263146167557,-0.4669591016651713,-0.7991796274076808,0.07996737423362782,-0.8593858549879414,-0.4524469147058997,-0.8291591856908818,0.594010805929778,-0.4772378937648644,-0.49479750511785014,-0.45326061836554077,-0.565166337977915,undefined,1496113150970
903d185fccf839df,-0.14284079867379873,-0.5692948797934251,2.002950773141039,2.011756126716959,-0.5044940650951553,-1.7900889626104974,1.9461109151823557,-0.2582533295700038,-0.5187344456036699,-0.1514085995897794,-0.08437209665156929,0.13280243706639283,0.10953514928698754,-0.4114090724341998,-0.8076007344741595,0.1648328224697315,-0.7964659031250746,-0.4461139704250111,-0.8126816964372136,0.6576679771161339,-0.4569825153637581,-0.4793559146914096,-0.4243381427264601,-0.5583579007312357,undefined,1496113152485
903d185fccf839df,-0.18580731443471626,-0.5193984880411379,1.0701782042770658,1.0971477121941307,-0.5620939649496518,-1.7709146640245061,2.080730685426615,0.6325068989655768,-0.5047303014109095,-0.24895048941534928,-0.08272088520864933,0.1378344059872091,-0.8913978943850268,-0.4012248811982061,-0.8033901993465046,0.1284619483853688,-0.8684636833494876,-0.4572092872052086,-0.8125697477506887,0.6545112967285444,-0.46353194401401615,-0.5036219544821365,-0.44313779862506725,-0.5065473956117772,undefined,1496113153978
903d185fccf839df,-0.33411080635462126,-0.5141153530580453,1.690963105098694,1.816229574092129,-0.7140239953947378,-1.7590797983612196,1.9477939784001104,-0.2724663929416309,-0.3895551746963095,-0.13259889445198725,-0.04715431908457294,0.06142889694844018,-0.7695451760249554,-0.4206674127978241,-0.7897059638627433,0.17493593412393496,-0.8388573960207298,-0.4226377486503158,-0.7865416113995566,0.5840634058096885,-0.45179587743663996,-0.5043091555721559,-0.5095311964662268,-0.541248293248267,undefined,1496113155480
903d185fccf839df,-0.10264630950931272,-0.532312788771816,1.634818153684279,1.8052086496416917,-0.5714539500268592,-1.7913444197261157,1.9404489284222115,-0.3286473877943933,-0.4856627625650403,0.09592625708734544,-0.008268470543842348,-0.03298071689179435,-0.6085255124777184,-0.3947440545993661,-0.7865480735603528,0.13452379841905798,-0.8411445503456789,-0.4283310652931245,-0.7835749631535341,0.500080283564828,-0.4683745541609526,-0.5016540097179447,-0.4828262140123933,-0.5445747232612606,undefined,1496113156967
903d185fccf839df,-0.09848837313089466,-0.5722299255560397,1.5965375049926323,1.6300156048120373,-0.5628962528275662,-1.832786244818048,1.898732303702307,-0.669273083866042,-0.3959974524480846,-0.050265682314952466,-0.10088270862965433,0.05223914252634475,-0.5693585672905526,-0.4382582297019289,-0.7897059565005095,0.22747174163146872,-0.8542921759307952,-0.4890449973027344,-0.7983732176622244,0.5301534459328728,-0.49235570444213705,-0.5067932127460384,-0.4953259542783361,-0.5414934406019851,undefined,1496113158518
903d185fccf839df,-0.10680445292018918,-0.5728169113261687,1.4651067695440796,1.5005807416277501,-0.460749001282031,-1.8621509637630753,1.9644932408694797,-0.26517468502010993,-0.4905469689592047,-0.054541018041181284,-0.11033995416563674,-0.038208987575907044,-0.7521376448306596,-0.44751659596710236,-0.7686532955867028,0.22949238657408663,-0.8185834518931642,-0.4971385009170011,-0.7925588680745052,0.4768286332699148,-0.5035870460232217,-0.4792277240468541,-0.4834601441714561,-0.5139754377656076,undefined,1496113159975
903d185fccf839df,-0.06938205936295413,-0.5352479222184077,1.3253822747510944,1.3027684735773328,-0.549576277779431,-1.8460698954527703,1.9714017466149785,-0.20686652456153803,-0.6064178246951298,-0.13819356533017318,-0.162743383068029,-0.06705345529845082,-0.6302849264705882,-0.44381325723149767,-0.7991796494943821,0.16079178696698945,-0.8003765853919856,-0.5185311844986679,-0.8006261923671845,0.45542479525733504,-0.5171257281452591,-0.43964752961889636,-0.5277976995681292,-0.5858236969731175,undefined,1496113161483
903d185fccf839df,-0.32856668415093876,-0.6379756638016197,1.692239126721749,1.7918417631261006,-0.7335256820129853,-1.8224071545407168,1.8834926062482618,-0.8323016731394025,-0.5344260474930063,-0.1772191184566186,-0.0011956792777517774,0.046586328407523456,-0.5954698640819964,-0.4252965506026999,-0.7781270033050431,0.3103166862485621,-0.7982066634031715,-0.5155990314708386,-0.8348266043055234,0.5732690995770724,-0.5048015864015015,-0.4341061722416479,-0.4562967962486425,-0.5580391904030616,undefined,1496113162983
903d185fccf839df,-0.34519891274034725,-0.7172227762319842,1.829411324131675,1.728998351997961,-0.6677280821549691,-1.8267931124269265,1.830354736181807,-1.1593596733110558,-0.569865994266211,-0.48558363674729815,0.01147228443327361,-0.004952774749759016,-0.7260263480392157,-0.3947440675501407,-0.7549690821896428,0.29617242603273053,-0.7993398708475282,-0.5001783132177493,-0.8504155001438213,0.6035886410436393,-0.4949990356216335,-0.4280956852806138,-0.46284550399725427,-0.49446980561919907,undefined,1496113164473
903d185fccf839df,-0.3964815082905593,-0.6549990695191477,1.5250802941015582,1.4377187440923884,-0.8495894896096415,-1.8184031923881891,1.8467252884072871,-1.10161953516415,-0.3901882391513973,-0.5763386523838722,-0.013236972480308194,0.03635170447809744,-0.7695451760249554,-0.3882632539020753,-0.7591796025928301,0.27596631578320974,-0.8749004971284002,-0.469210218098246,-0.8340709503212782,0.6214508383671355,-0.47899572985409267,-0.4326960914920049,-0.450104724455433,-0.5176148333051656,undefined,1496113165981
903d185fccf839df,0.07337748288031704,-0.6943291328492653,1.4785051236546307,1.562491130333215,-0.5034243568522614,-1.8592370838819652,1.9981574047648967,-0.002043815535916132,-0.38055638826082056,-0.6443525291790347,-0.1123314054062489,0.013363076443859192,-0.8304715352049912,-0.38548570128496723,-0.7654954052843124,0.29819301444590535,-0.9221606385985219,-0.4314658729837101,-0.8572233968026239,0.6416689971438737,-0.4616433058870353,-0.4790382674232312,-0.4074654938177968,-0.5190557119977707,undefined,1496113167478
903d185fccf839df,0.051201235603455256,-0.6479549187696834,2.014434713611583,1.9839864904544808,-0.44075360172607253,-1.8241144864710757,1.9193684160012128,-0.4541182101409052,-0.37755123076413943,-0.6780392297374529,-0.15197863339216963,0.04786337032164098,-0.9392686051693405,-0.4725141162439655,-0.852863953966397,0.37093490393823836,-0.8117285412210574,-0.4297623108687316,-0.8564537470495368,0.6543881106189037,-0.4643797986827731,-0.47557091098217563,-0.42286348208302466,-0.5041967849883014,undefined,1496113168984
903d185fccf839df,-0.030573618002093596,-0.6279963503775715,1.9889142811504856,2.091068635609524,-0.25991047509537946,-1.8486669974330179,1.9335535905494237,-0.3349952521147621,-0.47028887931329094,-0.3950070110632476,-0.19036031370857154,-0.02983101526417671,-0.9001016599821747,-0.4901049201972958,-0.8212849478712194,0.31233724639701543,-0.8532234590906494,-0.3823918921563031,-0.8503385353465189,0.6355096140246913,-0.4422825333155213,-0.4675408197443039,-0.4407126089123781,-0.5706102492300054,undefined,1496113170515
903d185fccf839df,-0.07215408595938563,-0.6532380245247835,2.036127335340466,1.9943228925436383,-0.38024284797526364,-1.8927921043697378,1.8752034578744363,-0.8221653575052313,-0.5289174485291056,0.06980667951070475,-0.24740451325848015,0.027757117088188454,-0.9740836675579323,-0.4558490984091319,-0.8212849625956871,0.29617236950328746,-0.8616682687498322,-0.40277763814727113,-0.8268222541612846,0.6330612622084051,-0.44445043527130174,-0.4740833862308655,-0.5331317538689488,-0.5851108029332848,undefined,1496113171988
903d185fccf839df,-0.16778900353627255,-0.5698818071075695,2.011244786622421,2.0917206418299643,-0.5805670788512675,-1.8931624543281922,1.9851109450679012,-0.12634652067231045,-0.48299923813566115,0.22529856886373037,-0.21702141702223346,-0.05007542360076414,-0.9653799019607844,-0.5132507905325184,-0.7854954213728546,0.1870595776618702,-0.8847711110084572,-0.3540013041999484,-0.807056263269511,0.6139517894575285,-0.42685727288236475,-0.4879928424926213,-0.5592644488598634,-0.5723693383141482,undefined,1496113173474
903d185fccf839df,-0.25649399264371964,-0.6549991279751324,2.008054605496309,1.9833637563475712,-0.8142889726183786,-1.9196691971801112,1.8942984686803832,-0.8707556156433062,-0.3689327317291134,-0.2769137747580545,-0.13314068679823682,-0.02410298693099608,-0.8783422459893049,-0.5391741746325255,-0.7676006728481398,0.1284619483853688,-0.8466187060390917,-0.3625317802580186,-0.7813989579621304,0.4940594954474851,-0.4482580199394869,-0.46132443710273774,-0.5400193162359834,-0.5242579153665227,undefined,1496113174986
903d185fccf839df,-0.33133881426359946,-0.582209151296111,1.9914663243965953,1.8831705663667213,-0.7423302354570754,-1.8924660122618742,1.886722001235293,-0.898062453375049,-0.38189793105483405,-0.12953776856323906,-0.14516205240279983,-0.015459301475036246,-0.9175091911764707,-0.48177243070604076,-0.7907586086880076,0.17493590585921343,-0.7930363162825538,-0.40570345684725645,-0.7767670676753243,0.5512493217946063,-0.45495845154939807,-0.46672197605555477,-0.46984324403840017,-0.4901455404869041,undefined,1496113176475
903d185fccf839df,-0.4158856254547604,-0.5616636117478663,1.7879407484508656,1.8784830338781537,-0.8266729495280896,-1.9025865556355517,1.838246780566296,-1.2750633343077635,-0.3578638697793276,0.04829433479812742,-0.1968081355360283,0.011846672138896666,-0.8087121212121212,-0.48640160736324023,-0.8423376308717275,0.01732853986605519,-0.8546844073415719,-0.42885036672450055,-0.8115202276729206,0.4713159923849077,-0.48700489814467973,-0.5034914056095167,-0.465827207939879,-0.5154887721541528,undefined,1496113177989
903d185fccf839df,-0.2135275803990313,-0.6086248554395658,1.7241396672981213,1.5452974045290175,-0.857056898039585,-1.8936725582573632,1.92112512000108,-0.7194374423123774,-0.36644510468457986,-0.05434206969156293,-0.19880076292446286,-0.004453257000898812,-0.7608414104278075,-0.4808466575383187,-0.8897060737543897,-0.06349581633786339,-0.8781969016199844,-0.4767274224481669,-0.8254718684264396,0.4313416273466947,-0.5222303408025548,-0.4758336727492627,-0.39766006729662756,-0.5161399106331385,undefined,1496113179472
903d185fccf839df,-0.012555445125288818,-0.6321055138204059,1.3343144261124786,1.3369473372428,-0.5627522478316634,-1.9153833968634109,2.024034687607521,0.0037615353798904913,-0.4644989849450423,-0.11225179142066839,-0.08479258578302588,0.039059936437900684,-0.7434338792335116,-0.4901049331480703,-0.863390262336599,0.06380249733989979,-0.8867772768946077,-0.48245873624366675,-0.8217425673116114,0.5105204327814398,-0.5030153580159584,-0.45890241209216437,-0.36250748365201696,-0.5213476830146064,undefined,1496113181026
903d185fccf839df,0.062289411000000745,-0.571642881329926,1.5091298967448974,1.4289711560353127,-0.5081969127721557,-1.8771652403675392,2.0427352430829866,0.19030495585122603,-0.47485912927882457,-0.3114652245249462,-0.07252021845629583,-0.0899652704962992,-0.9175091911764707,-0.48825325730488073,-0.8876008061905623,0.09613219459791277,-0.9401726741461048,-0.46910889124855776,-0.8514440290549119,0.5306461990680885,-0.4990808290239429,-0.4964048075973214,-0.32302939593778635,-0.5896979916386228,undefined,1496113182477
903d185fccf839df,-0.15947292374697802,-0.5017880673254885,1.2922057125516673,1.3289643605412536,-0.4904232303542197,-1.79989272738837,1.9751834128996364,-0.13924992786648682,-0.48181719910920023,-0.49172372484099425,-0.10249934751930488,-0.024400148093515383,-0.8826941287878788,-0.5160282913465283,-0.9097061045673995,0.19312139943083784,-0.8902764764151054,-0.5241928345683065,-0.8946073557385082,0.5913314711987481,-0.520750439318043,-0.5007375748911954,-0.3732012306672895,-0.6259112218595207,undefined,1496113183972
903d185fccf839df,-0.16778907254709202,-0.49591785888829,1.3075182261652754,1.3000776803577758,-0.5759076546259384,-1.751505113187641,1.9500871832569975,-0.27619075688309086,-0.5208699867117076,-0.5002196614969985,0.01429124291048886,0.04623102608841073,-0.9044535427807487,-0.4938083107359986,-0.8928639935057153,0.4295325049500182,-0.8105079950832377,-0.5505188828027814,-0.8992462420960267,0.6952093818100304,-0.5058988298027947,-0.5222867221328426,-0.32432003690081534,-0.6212544750241419,undefined,1496113185477
903d185fccf839df,-0.015327368205491118,-0.4741982747298063,0.7983850902924754,0.9934966766030735,-0.6110024593628709,-1.7353634864489376,1.9273262054722924,-0.42260004295028786,-0.483373837934514,-0.22529171912164989,0.08203668819521093,-0.05450691126161154,-0.8696384803921569,-0.49010494609884486,-0.9297061206559418,0.2638426157158314,-0.8329840040351559,-0.57472339390873,-0.9299902299261837,0.676207700654343,-0.5280923669535066,-0.5088354162860507,-0.41826678623821356,-0.5933469799956785,undefined,1496113186987
903d185fccf839df,-0.013941423918094836,-0.5311388464595502,1.2705135990966836,1.42699216115492,-0.6659897949423186,-1.8059790320989821,1.985121456949103,-0.14547754943831895,-0.4742846643686623,-0.0862765317284887,0.031509902384633276,-0.062326988707842944,-0.6215811608734403,-0.5058441065859218,-0.9370745681726885,0.1668534674123494,-0.8181740619576426,-0.5677761544288711,-0.9467615856893349,0.671357187915547,-0.5344006831219243,-0.4675621919219792,-0.40748183198257204,-0.5720769711920249,undefined,1496113188465
903d185fccf839df,-0.4089555934690913,-0.4730242447335635,1.5805871076359712,1.7100075902643352,-0.9186476575634082,-1.8040923479637534,1.8895280051973296,-0.8323319576907635,-0.309075559588233,-0.3795579843476426,0.027005781607214837,-0.034157850947311344,-0.6389886920677362,-0.4706624144992268,-0.894969253707309,0.029452268198155045,-0.849009478599106,-0.5069355641547466,-0.9330198495312669,0.5907463275524025,-0.5212639308972085,-0.48331027666300647,-0.42424474264579276,-0.5458285470396077,undefined,1496113189978
903d185fccf839df,0.04149910801053526,-0.586318285510953,1.9608420595802274,2.081848897813816,-0.5933522033488858,-1.8895241835333656,1.860118892636702,-0.9997165167758654,-0.35337344669240767,-0.23553824864711867,-0.03325139597539671,-0.017337121992573663,-0.9044535427807487,-0.2975315002074724,-0.8328639157911534,0.19514204437345575,-0.7720655462295277,-0.44151625584548093,-0.8923403909719245,0.6854159736025235,-0.46362791677006887,-0.4412578423496794,-0.4495907547762656,-0.4751403838422238,undefined,1496113191538
903d185fccf839df,0.0013046878568687057,-0.4876997073705753,1.7573164836344977,1.9494229535903171,-0.6110127391123601,-1.8449891289485767,1.8992740683563412,-0.7024483251704179,-0.3565374564339847,-0.09043281776319752,-0.03145229418614924,0.11123979774356538,-0.7390819964349377,-0.34752657961352235,-0.8233902375217482,0.09209107430100613,-0.7986841659479351,-0.385761020307682,-0.8753941159584057,0.6291962517686586,-0.4512426774549251,-0.43205036387371915,-0.4492256253939368,-0.4643048896434137,undefined,1496113192975
903d185fccf839df,0.01793688194086747,-0.48887373736681805,1.7183974429258995,1.6695508325090929,-0.5932184836879274,-1.8411086155119145,1.9531903455827293,-0.32922878029806457,-0.5153451537674786,-0.010449678215727494,-0.07114064169843363,0.08989707542538597,-0.5388953877005348,-0.423444939513383,-0.8412849713219955,0.0072255130060163274,-0.7715991670404222,-0.38777489576037605,-0.8611136248795856,0.6173548487013183,-0.4570695474088238,-0.44505987779504563,-0.4254835676099213,-0.4973005852055612,undefined,1496113194483
903d185fccf839df,-0.2232296044757221,-0.4976788746546618,1.8702442702063808,1.7482325829811012,-0.6891428934244652,-1.8094845349758728,1.9091516138321212,-0.6093799735846942,-0.5700885119277396,-0.3204742884704103,-0.0431136244226004,0.014770844624601593,-0.7216744652406417,-0.36882074820400634,-0.7707585852372316,0.23353356340043635,-0.7575720237296266,-0.35014454517676286,-0.7704909296096447,0.4731176113367864,-0.42577313207604645,-0.2865777582906103,-0.5600921420314702,-0.4828094881882833,undefined,1496113195999
903d185fccf839df,-0.08601418443613343,-0.08618101023566119,1.8172889916441788,1.6162039421396683,-0.6082150287657008,-1.6001162112680751,1.8515772695125832,-0.5060762183400055,-0.7143221451668095,-0.5381400668271389,-0.13086752020021108,-0.15525071017149217,-0.504080325311943,-0.36974656022405206,-0.8086533719371901,0.19514212916762036,-0.7312658903988202,-0.3514871292529801,-0.788941519139044,0.2883824585713758,-0.4616328156905452,-0.30344902383839806,-0.5575798131106403,-0.4712003230299788,undefined,1496113197480
903d185fccf839df,-0.18303514981664581,-0.1284460901004011,1.7566780916175462,1.598401225022013,-0.6010150405266916,-1.5466857923327213,1.8285901443428318,-0.5649295500212306,-0.6171411652713377,-0.578394136389124,-0.09054647144961936,-0.06941556876211578,-0.24731924019607843,-0.42899991523985365,-0.7781270033050431,-0.006918718945093771,-0.814400409523877,-0.3348821503827283,-0.7765361728980428,0.15142868500096265,-0.4681557164726459,-0.21602537901787633,-0.5682689226879123,-0.49372362461601343,undefined,1496113198985
903d185fccf839df,-0.27728419211695593,-0.24408822009826842,1.5346503292059952,1.4369372206538285,-0.677592059473261,-1.5485980969436761,1.8113017975174308,-0.7130858698193112,-0.44020314511892394,-0.3303276317080752,-0.17445423925553033,-0.05879180225678071,-0.5867660984848485,-0.27623730571543925,-0.8191796876696258,0.2315129184578184,-0.631223697295619,-0.27825296786999937,-0.795021746946722,0.2226772901019708,-0.4284892847854265,-0.22000429382834413,-0.5315420842369931,-0.505340899405274,undefined,1496113200487
903d185fccf839df,-0.21907153007566513,-0.48828666391271197,1.5193380697293366,1.3822143787141177,-0.5996881944210243,-1.7656552405015364,1.9021142576683614,-0.5653011191010993,-0.38003520388612444,-0.0854144241144713,-0.1670233900747396,-0.02614501945521911,-0.6955631684491979,-0.24938812254616105,-0.7897059785872108,0.2092862480598443,-0.6703667708184012,-0.3056872793766249,-0.8023823915302069,0.25986453694519995,-0.43718296157042014,-0.18530914676506297,-0.499618945688021,-0.4416128873304974,undefined,1496113201974
903d185fccf839df,-0.2661960512258202,-0.5352479514464,1.2507353910078074,1.1675968227058882,-0.7873095908088721,-1.8200802444003459,2.0095286822743543,0.011187611269011936,-0.3547636680489394,-0.5565423822024167,-0.25135491394774007,0.0029995950033584943,-0.7042669340463459,-0.31419653099308054,-0.8012849244204434,0.30829604130594424,-0.704222839654553,-0.3510818198278071,-0.8709721290130529,0.311557116881379,-0.4704185137176055,-0.2734654095137305,-0.4439309955691375,-0.46771236477984535,undefined,1496113203525
903d185fccf839df,-0.2232296044757221,-0.518224458044895,1.3630252938366378,1.2541620556809725,-0.8100306920039214,-1.8464728540580837,2.0042322554797667,-0.04426622113649707,-0.40230664468483485,-0.5535114149972395,-0.237313648573272,-0.1585925428260534,-0.8000083556149733,-0.17532145144026448,-0.7749691130026527,0.24767788014571104,-0.7010427577942245,-0.3179731896844419,-0.834686668008468,0.4648486404779605,-0.4137471227061136,-0.2751219145604727,-0.42667399571836784,-0.48397175455568214,undefined,1496113204973
903d185fccf839df,-0.23154578778124582,-0.4900477089070761,1.572930977897642,1.516249424092842,-0.8668797392894729,-1.850614241924725,1.9777474812281481,-0.2297706633138408,-0.3893592939143107,-0.794057057196981,-0.24672550842897445,-0.02568622183971834,-0.7303782308377896,-0.31327069307148575,-0.7928638541651337,0.2658632323937278,-0.7343147282647227,-0.37667957766798876,-0.857972054630518,0.45405433171442994,-0.4542029905418093,-0.37688510796132196,-0.3796647591282087,-0.51009339060999,undefined,1496113206476
903d185fccf839df,-0.25094987044003714,-0.4700891697429566,1.6998952564600782,1.6987813954495168,-0.8147106800373517,-1.8553169761053654,1.989968198350386,-0.13357723875046124,-0.36301384698261596,-0.7170357635677486,-0.19815569458926274,-0.05195420245253712,-0.7521376448306596,-0.3271581841907604,-0.7697059404119672,0.2618220555673781,-0.744042433093139,-0.36018859361102984,-0.8556980911261831,0.4994181510972154,-0.4372148435599419,-0.38450195962781497,-0.37904304418646406,-0.5273814602589372,undefined,1496113207975
903d185fccf839df,-0.17056103013270404,-0.49885293387889695,1.838343983766958,1.800183975365056,-0.5439191360160874,-1.8504488664671266,1.9422845480001854,-0.3536816015941293,-0.4967204582616865,-0.43779795947485783,-0.255408780139238,0.013858591233326088,-0.8391753008021391,-0.24012982103486033,-0.7454954039202377,0.23757476849150758,-0.6968378977241401,-0.32220992927591385,-0.830320658578074,0.5192205486294116,-0.4072410267472167,-0.3830906726887797,-0.4489060676925355,-0.5864003079508415,undefined,1496113209487
903d185fccf839df,-0.23154578778124582,-0.4794814681688835,2.147140962409292,2.234001269517482,-0.5004517818719204,-1.8441203230632566,1.8588802452538675,-0.8699735056907281,-0.4799649351277853,0.2834775743018395,-0.24094827331763613,-0.0059392218310897,-0.7782489416221035,-0.17532138668639174,-0.834969175992747,0.24565723520309313,-0.6806316125734793,-0.2822363898970856,-0.854088824881464,0.5014199490994689,-0.4028082653868186,-0.48563018902907235,-0.43504194913486083,-0.6316393347052801,undefined,1496113210974
903d185fccf839df,-0.2786702054151717,-0.4700892281989413,2.321956178904762,2.2454312871169146,-0.6643749395650334,-1.8344539797646071,1.962544568025658,-0.23184517887879696,-0.4771708277598101,0.00961747237112067,-0.32047872751627215,0.016252505065165342,-0.8217677696078431,-0.05681470255633762,-0.7760217504656832,0.3386052066802254,-0.6225603720968038,-0.15595115879153604,-0.7889275252053205,0.6097634119595808,-0.2990542237477865,-0.3916232429747061,-0.4672385521657056,-0.4801549946279956,undefined,1496113212471
903d185fccf839df,-0.24401983845436812,-0.28165720920602955,2.5567446658207604,2.4669612265948713,-0.702380592084686,-1.6537469432893321,1.8559716805280317,-0.5893116381754073,-0.37096589750010783,-0.23393693242957894,-0.20719477170154232,-0.04885808092127588,-0.7173225824420678,-0.037372170956719596,-0.7486532721359267,0.21736868650670832,-0.5539306766275931,-0.13422916228813486,-0.7512566965769468,0.5170185780656169,-0.296345451492435,-0.36786083862832614,-0.47297282050705025,-0.4817059133862699,undefined,1496113213980
903d185fccf839df,-0.20798349270075855,-0.3579691881898023,1.9283031269869035,2.261957621949452,-0.7183337083773993,-1.6100364394139406,1.8808601745524354,-0.38603030595987253,-0.37056488434921037,-0.6898287642726679,-0.21791329194890716,-0.059748628249758816,-0.673803754456328,-0.06607302996918742,-0.7739164829018559,0.22949238657408663,-0.6027914500186377,-0.10580057792653896,-0.7245358757471608,0.5341416493211135,-0.27562471641721376,-0.4041881010025444,-0.4151418923738982,-0.46455424398830564,undefined,1496113215523
903d185fccf839df,-0.21214156710081555,-0.40434343149737656,1.998484570391872,1.97523543355939,-0.6697749295959914,-1.6023662555180518,1.803656955182286,-0.8728023732803163,-0.3752408025054051,-0.6947298508514841,-0.08674356843770202,-0.05630825424685627,-0.8217677696078431,-0.17346976264630035,-0.7549690821896428,0.22747171336674718,-0.7088341615794056,-0.12793421721957698,-0.7371861097877249,0.5760562179201417,-0.2830214613606195,-0.4294060607172871,-0.4391580016458486,-0.4749491547586969,undefined,1496113216978
903d185fccf839df,-0.08185621355230564,-0.5035490830918604,1.9008685350227488,1.9306952546422815,-0.6206607245228573,-1.737946611459931,1.8030994420856021,-1.1263592521743653,-0.3522791059448197,-0.6464726767485792,-0.09878328209524168,0.026143197412968732,-0.9349167223707665,-0.16421143523345055,-0.7318111610742425,0.18099781242234564,-0.7022861439497654,-0.1954687274325852,-0.7169023546708628,0.590407568308729,-0.306981408758954,-0.40099704183335366,-0.4391462541349304,-0.453402971389393,undefined,1496113218471
903d185fccf839df,-0.11927853809872122,-0.5041361273179741,1.9901905569104898,2.018613687362367,-0.5759076588430367,-1.825779894517392,1.830746589468152,-1.0495778437684289,-0.5197878869702958,-0.4107444762416995,-0.276538588435758,0.024091534290569008,-1.0001949643493762,-0.3290098470831755,-0.7823375531571656,0.14058559192330405,-0.8156389550172586,-0.31409109788441025,-0.7831971366691276,0.5700508229171704,-0.3899885504496249,-0.460753014287526,-0.43455322032646854,-0.600022343531967,undefined,1496113219982
903d185fccf839df,-0.21491359369724705,-0.420192836446654,1.6271615156720507,1.6795928944546106,-0.6163715942852296,-1.8129923702808342,1.8409581199838154,-1.0018790703504525,-0.46269736277786483,-0.18541767211906082,-0.24718179840139015,-0.01120232387508157,-0.9827874331550802,-0.37437574983202604,-0.7802322855933381,0.14058559192330405,-0.8688595415343172,-0.38196125466045006,-0.7929716805340523,0.545028348636161,-0.4334414447242427,-0.47197823853670084,-0.45239980502866056,-0.6207168458174036,undefined,1496113221489
903d185fccf839df,0.14683625669657138,-0.5305518022334366,1.7605061564867108,1.8002960057635162,-0.27443388125820367,-1.852503254570252,1.935433898454648,-0.29128920922962187,-0.4892748862717713,-0.07378546862029554,-0.2356726842429834,0.08812657983259194,-0.8870460115864528,-0.35585904320322825,-0.7802322782311043,0.15877108549492847,-0.7994483741428509,-0.37645159435873904,-0.7444278056195315,0.6308284887629898,-0.39639900837531983,-0.5026498911479477,-0.4072424859581378,-0.6238288293585705,undefined,1496113222996
903d185fccf839df,0.3214740357879854,-0.5035490830918604,1.6335418779242745,1.7703261722733434,-0.2030408559796374,-1.8737552321792117,2.0401448798624036,0.3549170322017082,-0.4399571841112015,-0.0011554799404983071,-0.16022302348366524,0.044348073067539254,-0.4779690285204991,-0.3753015877536208,-0.740232201880617,0.22140991986250108,-0.7210885092726512,-0.38047301245886633,-0.7151391546535864,0.6583301100414648,-0.38495960862210865,-0.44779973315653226,-0.375254300673662,-0.6235744007974587,undefined,1496113224489
903d185fccf839df,0.3533523416469477,-0.5217465480336234,1.6679944617467566,1.671161637565023,-0.21140312942236839,-1.8992813649675049,1.9795673041774693,-0.08014513451367165,-0.37194929294969997,-0.36997711906303593,-0.05919702991833938,0.12651083398857801,-0.5258397393048129,-0.3558590691047773,-0.7202321931543085,0.34062571029923566,-0.6838657315407544,-0.3900230905942136,-0.6667771982287832,0.6371726489869,-0.37018981225853714,-0.4001796520973602,-0.3832331619352344,-0.6314060587778574,undefined,1496113225998
903d185fccf839df,0.3505805220829746,-0.5246816522522226,1.419808383131055,1.3029120156706733,-0.2052008533939857,-1.8220437912529721,1.903502786040753,-0.4887163427943839,-0.3449627903134127,-0.78362286670574,0.070896352520158,0.00535531292002808,-0.8957497771836007,-0.3882632280005262,-0.6781268566022277,0.5123775060965547,-0.6257304672829354,-0.3727911496687202,-0.5988171751562303,0.7137183195637523,-0.32910622421089175,-0.3993109928939763,-0.40192817896059035,-0.5526700735912683,undefined,1496113227521
903d185fccf839df,1.108730486315186,-0.4213669541268738,2.143951289557079,2.093055930989744,0.2694120689190762,-1.7454118221995463,1.9554467153832549,0.2195512721300141,-0.3731322303691748,-0.11291687498823079,0.3892104750427196,-0.043691372773051955,-0.7564895276292335,-0.35030406747675763,-0.5528635433068859,0.7568709935331561,-0.5769876703547671,-0.31765020987248493,-0.5707739571563911,0.9067070351977653,-0.2561721954049362,-0.3918299391856718,-0.33323491531194194,-0.5648747213982255,undefined,1496113228985
903d185fccf839df,1.3304926830405257,-0.40551740303763467,2.3066439194281028,2.2609861410730243,0.8644807939488676,-1.6492934375731718,1.93868959422606,0.6500337983532608,-0.5315547742870945,-0.4422796294395611,0.5296803012254807,-0.04551072254070483,-0.6825075200534759,-0.3253065342491199,-0.5728636403799999,0.8841693072109192,-0.533148384748099,-0.2870304270981714,-0.602770373907142,0.8190282820609519,-0.2675313037402283,-0.4022179331021226,-0.34131644859047466,-0.4948483710022494,undefined,1496113230479
903d185fccf839df,1.2819821485921548,-0.28341828342838604,2.755803784880374,2.650474670765693,0.9427035188281353,-1.6952050737810844,1.8879185640372353,0.30857914494464617,-0.38211276163718766,0.12397186597737606,0.3811772701134791,0.012028078748561799,-0.865286597593583,-0.3188256687979563,-0.6560216023987931,1.0256119093692355,-0.4701630662772258,-0.35151879245432044,-0.6360681976705839,0.867333202504632,-0.2995021913680556,-0.38820196969092985,-0.3912094827930207,-0.4248840373289453,undefined,1496113231982
903d185fccf839df,0.845387683610915,-0.33037954173408174,2.1452270570431846,2.0360679527018317,0.3580336447491642,-1.710671221491815,1.8150282232640473,-0.5121835592247371,-0.4959663954459592,-0.6343887868700995,0.14685174681456886,0.012410054661732273,-0.8261196524064172,-0.34104571416235874,-0.7528638367125168,0.8902312137740515,-0.41786405186063463,-0.40534881403881545,-0.6836954892958914,0.829730195116901,-0.35080552306806295,-0.4337734361645494,-0.3542197176433483,-0.40585998340146356,undefined,1496113233487
903d185fccf839df,0.13990615570008288,-0.24819732508511813,1.7381756510147754,1.5938546587902447,-0.2823950043122974,-1.7005856141644746,1.8977408808905347,-0.3428549958126514,-0.6952713168242258,-0.7471857210231744,-0.05648249340871013,-0.013291710191009073,-0.8261196524064172,-0.28549564607906364,-0.8654955151759588,0.9528699068180164,-0.4251129874103533,-0.4583175540042153,-0.7662718514337132,0.8702743028789484,-0.386492858868317,-0.4501605134068477,-0.3696510726990726,-0.48333321518648903,undefined,1496113234974
903d185fccf839df,0.14960845582005156,-0.293984553394571,1.6392841022964963,1.4627868835415514,-0.05697367179020316,-1.5963428418976697,1.8436352512186496,-0.34960290577579795,-0.6166692264482225,-0.8988129800861919,-0.06161865995730525,0.019538615546489148,-0.8261196524064172,-0.32715815828921135,-0.8591797198467104,1.171095603559737,-0.2960229193439004,-0.4856505381462425,-0.7665097426426136,1.278225316593101,-0.3190175701432746,-0.3258977152601714,-0.14039347264230395,-0.23026491650333203,undefined,1496113236486
903d185fccf839df,0.13436217151803934,-0.30278971991040715,1.9531854215679993,1.785497319915198,0.08766380262543497,-1.5655037145444999,1.8393434224411975,-0.23323156295120956,-0.6097841476523036,-1.0979298827272048,-0.0911697258261822,-0.00016067907169340682,-0.8304715352049912,-0.29475399291807525,-0.7928638541651337,1.4943928305223606,-0.2074391969801087,-0.428565383328858,-0.7167484229658723,1.6484347428608472,-0.21342523162398025,-0.2819470451475215,0.08449136097476087,-0.2507669627422306,undefined,1496113238015
903d185fccf839df,0.8744940318842652,-0.351512023210467,2.237738751783139,2.034040284006988,0.10589005344847362,-1.522769162363931,1.8114753600449616,-0.19728397864732594,-0.7020951714877611,-0.5190670558847102,-0.28451336431055374,-0.09753552338955947,-0.7521376448306596,-0.29382817442264225,-0.7023374299051262,1.2822290120790507,-0.3194079801012897,-0.3538873127861686,-0.6851578219494308,1.598528383202241,-0.17728271439559046,-0.31383256566052214,0.1166040154654264,-0.33711881585104675,undefined,1496113239481
903d185fccf839df,0.16624047737700165,-0.17599430494823345,2.4100019250324984,2.03716778929568,-0.2574522008711046,-1.3517983434617542,1.8323928443413509,0.0560527013266492,-0.7392470074056743,-0.5270205117139805,0.04723096855750177,0.004196425820145872,-0.504080325311943,-0.217909801572007,-0.681284783715787,1.1690749303523975,-0.30381656282536607,-0.271603376643318,-0.6674768804725755,1.601946841672291,-0.13640934710589764,-0.32839724816698734,0.057487428303286875,-0.382129785509462,undefined,1496113240978
903d185fccf839df,0.09971170104100659,-0.2998547033757849,2.404897838540279,2.123155276231202,-0.49540151931585846,-1.3648327666703326,1.7313714703841987,-0.6788410327226294,-0.5912793396754265,-0.3439120348528147,0.020756803980791758,-0.060180248118149995,-0.6128773952762924,-0.2271681548864059,-0.6781268860511629,1.308496887568096,-0.2790376597432433,-0.16782542916109905,-0.5793100664137032,1.4790210526977212,-0.09062079977908036,-0.31920342479286506,0.06355337289140392,-0.43871910438041645,undefined,1496113242472
903d185fccf839df,0.22861111030212022,-0.54992326794345,2.4380741466027565,2.168544011417932,-0.3462794723491975,-1.4858553782317827,1.7649041304886495,-0.6788438541001187,-0.520275385723628,-0.6877166993252559,-0.01408622992097969,0.0019572641900720174,-0.8217677696078431,-0.1799506151466894,-0.7549690821896428,0.775056515369502,-0.4377300696179903,-0.11579396325432022,-0.6186671282984744,0.9997906340299598,-0.17244946272177233,-0.3870907048524573,0.05309716390819289,-0.5279669667826967,undefined,1496113243980
903d185fccf839df,0.277121644750491,-0.4970919181125251,2.6192699794873993,2.359193612684761,-0.23292080452203567,-1.6940055131008498,1.827198974644237,-0.6390715872798111,-0.4761401270985178,-0.619849706078133,-0.3354749359173547,-0.024650547885872915,-0.865286597593583,-0.19291226834436928,-0.7402322166050846,0.7043351294961793,-0.48953455947793734,-0.10049357050477789,-0.6393706923921414,0.7908953273058774,-0.210416487642068,-0.39790341903576354,-0.10520868149664389,-0.48714889075288736,undefined,1496113245488
903d185fccf839df,0.05535927549810252,-0.44426048059762324,2.7143332091995647,2.421923293039858,-0.13165811925285306,-1.7485539654491455,1.8637296117447664,-0.47109774356820444,-0.486409093247544,-0.49408521271222827,-0.3879381490243738,-0.07250700733955773,-0.6999150512477719,-0.18643138994243114,-0.7212848306173392,0.6093666261353152,-0.45682209829817166,-0.08290065417043967,-0.6414347510135232,0.8525199047433836,-0.1940399458598513,-0.36053306089971854,-0.15311042381718018,-0.49282582073398706,undefined,1496113246996
903d185fccf839df,0.19950493455581864,-0.39788626651804126,2.388947441183618,2.1946218607841725,-0.11317472806238896,-1.665018129473022,1.8747642749346378,-0.3008834641165971,-0.485272646782993,-0.2868721137856825,-0.2750290618865879,-0.029936163144848097,-0.8087121212121212,-0.13828802523189437,-0.6170741929602717,0.7144382128856612,-0.4032033292936834,-0.1280482105601167,-0.590658895295046,0.8532128360269988,-0.20017368361565463,-0.31716337040933174,-0.07561779883730853,-0.44663781497195054,undefined,1496113248475
903d185fccf839df,0.15238027538402465,-0.44895662981058665,2.3040921303189426,2.082955172260292,-0.22511396208425857,-1.5720442154304888,1.7087551401701684,-1.2481576107840775,-0.5047224910877935,-0.2830215173451675,-0.04300113842532891,-0.02093880911537154,-0.9436204879679144,-0.14476887773228342,-0.660232137526448,0.6457375567491209,-0.4370320419798237,-0.13056872065435554,-0.6416796403851709,0.884379289192951,-0.21522064494977164,-0.3883636275200032,-0.10811980338147534,-0.4770155362176244,undefined,1496113250018
903d185fccf839df,0.051201304614274724,-0.5205725764933653,2.186059748980941,1.9332914125745342,-0.3670257225696046,-1.5477991647728644,1.5957102969208137,-1.9525335203264462,-0.4622388235236075,-0.859644468116849,-0.07343671834254033,0.015243649810590353,-0.9653799019607844,-0.23735230727007595,-0.673916350923508,0.6841291323055446,-0.4346332498458028,-0.16709080851948488,-0.6660635264922539,0.8334874303181647,-0.2568392435092729,-0.37505289051754725,-0.14634241360347777,-0.5195427869741289,undefined,1496113251476
903d185fccf839df,-0.2176855512828591,-0.49533081466217627,2.155435484164573,2.068188094035466,-0.6242401484365947,-1.5336467073050906,1.6876772407922844,-1.461760349241076,-0.41537594005867695,-0.7846034659939504,-0.03585056649521156,-0.036688434530415016,-0.9392686051693405,-0.2419815098288245,-0.7360216814774297,0.7103969512651469,-0.46505919996963707,-0.2411419204950321,-0.6525456874074997,0.8172574658426085,-0.2929769944833036,-0.34371096861263856,-0.1735612203753801,-0.5436030204071047,undefined,1496113252978
903d185fccf839df,0.19811878323596394,-0.5599026398234829,2.13629515981875,2.1333338038577923,-0.2796487223928152,-1.6010805140382305,1.846933024549284,-0.43576076826420174,-0.4915533831878744,-0.7816954178968812,-0.15894265974690566,-0.016685504374349985,-0.8870460115864528,-0.18643144174552934,-0.758126979854267,0.7952626256190228,-0.39958341565842526,-0.14571712307123033,-0.6547356892730705,0.9444332289778449,-0.2338772967486408,-0.31358459514396203,-0.0000952517738148609,-0.4822180913509572,undefined,1496113254475
903d185fccf839df,0.06644738188382854,-0.5340738629941725,2.5905591117632403,2.5046827128532247,-0.23461794193070531,-1.6246151477876947,1.923823291545889,0.07597820821106985,-0.5311263289264471,-0.5416993224990355,-0.2630337858605557,-0.016611801480242234,-0.9871393159536542,-0.1558788809883228,-0.8412849860464631,0.7750565718989451,-0.42111022519594354,-0.06744193807257581,-0.6865291976397749,0.90835466817394,-0.20645017796766255,-0.3110021530266325,-0.09401074988157707,-0.5365648701329057,undefined,1496113255981
903d185fccf839df,0.09971177005182606,-0.5358349079885367,3.194117847742102,3.1477260321848064,-0.2732201690676799,-1.6589108661383538,1.8509277075333015,-0.35934129131014353,-0.4463945169360566,-0.7955362842120559,-0.30937747293522394,-0.0167430892660668,-1.0001949643493762,-0.06885053078319726,-0.8286533953879661,0.928622676271589,-0.4197658890750967,0.03048436848835286,-0.6566808032473223,1.0960001254324476,-0.12243961911016624,-0.28869222239434733,0.04295695104207947,-0.5059947699855921,undefined,1496113257474
903d185fccf839df,0.5446224528439993,-0.4624579747673786,3.023130950252747,3.115235015772632,0.09429807290412422,-1.7414334809721468,1.766071766369074,-0.8231629415254742,-0.6238279278595171,-0.12180908590967372,-0.3752694203864701,0.014402764234553637,-0.9392686051693405,0.012622791892359484,-0.8170744274680322,0.8841693637403624,-0.41708545497559646,0.11099508157530696,-0.6223054706639256,1.2743603224158244,-0.0400445929560902,-0.14959289601361228,0.17025047353480155,-0.2818581764024535,undefined,1496113258986
903d185fccf839df,0.3214742428204438,-0.4606969005450221,2.6460659252976533,2.7571909167442197,-0.009947469167428566,-1.8019541039743106,1.8446161766017468,-0.5398945093159234,-0.4578268252777933,-0.030464491590079693,-0.26949463079392694,0.05664263572014453,-0.9436204879679144,0.09224456823247211,-0.7465480413832682,0.9670142235632911,-0.3519458518719699,0.19344367574313287,-0.589539404894135,1.3095457662353582,0.017357967955385908,-0.1675987766609978,0.057033690364816,-0.26792579858120597,undefined,1496113260489
903d185fccf839df,0.5986769714744137,-0.42019292413063103,2.9127549527900243,2.8412354305226066,0.27192177094636594,-1.8483245975252,1.9851556318238688,0.3623912209163814,-0.23787098682239247,-0.34007545015210794,-0.2713717553603355,0.12526857765566685,-0.20380041221033868,0.15427538520995993,-0.7297058714237137,1.195342918900329,-0.279036175865352,0.19253173068535184,-0.5857891143315237,1.4735546065970984,0.053672618323267286,-0.11940379133144885,0.032706217045751884,-0.23692495790130932,undefined,1496113262048
903d185fccf839df,0.3824586899202979,-0.3644264116251222,2.9523113689677762,2.7137969101643407,0.08734493809717954,-1.7942513106659481,1.9631388957520286,0.2370539767971047,-0.36784236471100934,-0.7671774081977578,-0.34609661418541365,0.12622895825155217,-0.17333723262032086,0.1089095990180803,-0.7286532781340859,1.1023948908937538,-0.3296682956988992,0.1904798570446103,-0.5949759270860057,1.544464447419529,0.05911342327528951,-0.1534615455827952,0.004704554301743738,-0.2321482094590891,undefined,1496113263478
903d185fccf839df,0.26603350385935526,-0.45189167557320126,2.942103195983337,2.6056046419674637,0.08067980825673123,-1.7471098375282061,1.9582527135839218,0.25934042783938555,-0.4790756766399165,-0.6652381786419219,-0.37462967352290527,0.15045878147145297,-0.6041736296791445,0.09872544663441024,-0.6812847689913195,1.0377354963777279,-0.4471448314331766,0.16148130826695906,-0.6002865048347436,1.512204705084609,0.04365323432042631,-0.14533868586671364,-0.08851326299424672,-0.2673252144689161,undefined,1496113264975
903d185fccf839df,-0.034731588885921386,-0.49063469467720516,2.8419353715050537,2.6816104699709853,-0.168717484084039,-1.7373829355574304,1.7691749208383927,-1.0479648398621622,-0.456154061402643,-0.5416410876256612,-0.2853643239608804,-0.040513622803417616,-0.7042669340463459,0.02002959887131425,-0.6739163656479755,1.1044154793069285,-0.45121391529106575,0.13427498343033967,-0.6013989981862125,1.3195393523220196,-0.0015334181634485027,-0.27391084411581756,-0.1956925065603811,-0.46938895350141047,undefined,1496113266488
903d185fccf839df,0.05535927549810252,-0.5464011779547217,2.131829211206532,2.0021275369799856,-0.2600133309254673,-1.73527264357298,1.8774361479210495,-0.43396511277133915,-0.4416365543010322,-0.0999432041826592,-0.31567418553094145,0.029310160607686698,-0.9262129567736186,-0.03829802182908894,-0.6581268331514516,0.8599220201350488,-0.46869164530667284,0.10979815535869655,-0.622928186042849,1.2796881766378638,-0.021839690934676526,-0.2819404645395789,-0.33733721805206157,-0.4871073848998837,undefined,1496113267984
903d185fccf839df,0.038727115919513486,-0.6180171246375002,1.9295791486099585,1.9731016133084054,-0.19910143550829326,-1.7330132824821067,1.9146926165389146,-0.2196030177772894,-0.5145091633318452,0.4280037203099052,-0.28967307118414126,-0.07125741627176563,-0.8957497771836007,-0.11421636877817509,-0.6612847455405435,0.708376419381415,-0.48381024031293507,0.08799382946908281,-0.6069824546666079,1.1048388305069279,-0.06029793775129279,-0.27368885330113535,-0.34138923427789014,-0.4802119273114437,undefined,1496113269476
903d185fccf839df,0.42542506765957655,-0.5258557114764578,2.1133267706037615,2.04583004500305,-0.2122054143955261,-1.6459439910116087,1.8908586836548906,-0.16472915641039249,-0.7008941027377814,0.29265754043926145,-0.3472704404371191,-0.058734172174434454,-0.9349167223707665,-0.04848217421275899,-0.5960214878730623,0.7366649398130783,-0.4599373820561759,0.03935048759367185,-0.5816470023108821,1.0999113257024484,-0.07620668252132515,-0.2633239387785195,-0.2716466299783422,-0.483376316050151,undefined,1496113270977
903d185fccf839df,0.07060549078929526,-0.45600075133205864,1.6092974670862317,1.6698083804791197,-0.4344998921891892,-1.5535127905127704,1.8207953880211927,-0.6106176470401121,-0.37700331011267946,-0.27971741198914507,-0.038187456851003256,-0.03129919082200118,-0.7521376448306596,-0.0790347090684164,-0.6370742164110477,0.692211542487687,-0.5177536097081309,-0.040938570349566876,-0.6521398734593723,1.1036685443450713,-0.1356013707577971,-0.326102784593205,-0.33250573651035703,-0.44991144394099386,undefined,1496113272503
903d185fccf839df,0.4392854421796022,-0.41256169992706065,2.09992867063016,1.8797819382116734,-0.21395397203723865,-1.611410690020624,1.8839922615737021,-0.12529363113601175,-0.3145972821559059,-0.41433018560763285,-0.3361318056420265,0.0057034834032138266,-0.8696384803921569,-0.021633042846578944,-0.5770741166097844,0.7528298732362495,-0.5342134770997498,-0.034390307378886965,-0.6417705992752402,1.1421646596301138,-0.11357829869821752,-0.335750345268492,-0.424311153607993,-0.5431901401974433,undefined,1496113274009
903d185fccf839df,0.31593005160594184,-0.39847333997214734,2.284313668093117,1.977053119330928,-0.05372339282638559,-1.5813192494145374,1.8801369707435187,-0.04336864319449165,-0.30422822856206383,-0.4515328892490457,-0.2573890058410365,0.03126297617008491,-0.6563962232620321,-0.09662556482484484,-0.6202320464514932,0.9589317003222625,-0.5102694885415483,-0.04870276048843268,-0.6561980223303358,1.272343118725402,-0.10912467377817232,-0.3042259565994332,-0.1716803114830623,-0.5415031323427032,undefined,1496113275478
903d185fccf839df,0.3935468653168434,-0.3450549166871164,2.5963013361354617,2.8183293218506615,-0.04194626938325211,-1.603044063058135,1.8340969616996416,-0.31084982119118704,-0.3705506628022558,-0.2516775894881187,-0.3814875666442164,0.027115866735801124,-0.7608414104278075,-0.07533135738203722,-0.6581268699626206,0.8437570301824346,-0.5404328582719992,-0.0021176259836475065,-0.6986966517665507,1.3082984872808534,-0.09363479688707446,-0.3718060514980109,-0.25135954481959083,-0.6117426133405809,undefined,1496113276960
903d185fccf839df,0.13713419811447083,-0.4700892281989413,2.4093637871524964,2.264618027665226,-0.2008705721580657,-1.5662840105038194,1.7794653601232704,-0.6784512570379911,-0.40147021152838486,-0.19660348153230273,-0.35973749150019846,0.03529374592213986,-0.865286597593583,-0.08736718560889686,-0.6876005864072694,0.6841291888349876,-0.45561479419637846,-0.0069876600535919145,-0.7081283525102244,1.2890196371496145,-0.09865270732074169,-0.3297186365523442,-0.22922321649517727,-0.5640457118881689,undefined,1496113278492
903d185fccf839df,0.19257479905392041,-0.4712631997391994,2.031661132591299,2.0400242700381614,-0.24927505718173415,-1.5200020271589005,1.9614873770818153,0.4859376842363601,-0.44940835233200604,-0.23074140510608862,-0.22003236590462413,-0.108266640759557,-0.8217677696078431,-0.13921392790736192,-0.6328636591966915,0.6699847872955483,-0.47752446428813217,-0.06936082242634856,-0.6714370760282468,1.185280305075767,-0.1370896836755149,-0.24490375145095247,-0.1795956660012097,-0.538670060197374,undefined,1496113279975
903d185fccf839df,0.11911595622684659,-0.45541379478992194,1.9340453513591254,1.9226495373732484,-0.06820564867709607,-1.519214746576551,1.9080944241976807,0.25225206697208613,-0.6830267165331649,0.19638942600083029,-0.27835507401358356,-0.06913081215452183,-0.6433405748663101,-0.059592229271896564,-0.6718110907219144,0.5709750505788915,-0.44579241823792737,-0.07481348844409293,-0.6342210390241373,1.0774295945431316,-0.1503309671758078,-0.11089953513591327,-0.22120408817278853,-0.48197836767751123,undefined,1496113281477
903d185fccf839df,0.12604602271792537,-0.46656713821021295,2.0042265406271444,2.150283853745211,-0.03510627489111792,-1.4955473463787687,1.8459021444722195,-0.07055121606664169,-0.6911520817671974,-0.21128793490297187,-0.25474576464818066,-0.0744967791788143,-0.7042669340463459,-0.22253893937688282,-0.7297059008726489,0.5851193673241663,-0.5008330306897961,-0.1788637528421762,-0.6336822865012733,0.9108800059574835,-0.22771187500980045,-0.18688586891899123,-0.3622111564632812,-0.49176912563642466,undefined,1496113282983
903d185fccf839df,-0.12066455139693696,-0.40610441803575603,2.1745758085103963,2.37803107941612,-0.16003635819219897,-1.5087564608601904,1.895768534577931,0.1958654956443628,-0.6792774668056882,-0.6848132351812318,-0.2783930989257195,-0.0500068958218141,-0.9001016599821747,-0.2280939669064516,-0.7749691056404189,0.6134077746969433,-0.5743112213023122,-0.2545804257216348,-0.6455698688413904,0.8270508707114624,-0.281840888154148,-0.24110742221983542,-0.43554898075452647,-0.49369433139285274,undefined,1496113284510
903d185fccf839df,-0.08878617652715519,-0.47302430318954825,2.070579919162948,2.1839221136052904,-0.36114229827014377,-1.571829927798116,1.9463765258559447,0.2574157136244847,-0.48337178328682073,-1.132701496999642,-0.21665196046508944,0.046143143791871,-0.8783422459893049,-0.11977140925851842,-0.801284939144911,0.6538200234607064,-0.49872000678232115,-0.19030104624447977,-0.6255449963142033,0.911480552949556,-0.23546853309824387,-0.17649265426433872,-0.36235346675609265,-0.4853989210085161,undefined,1496113286003
903d185fccf839df,-0.2287737266794046,-0.5035490246358757,2.2875035950822795,2.162296350638451,-0.4627649886591634,-1.5363719195701853,1.980350988752201,0.49396372636983654,-0.5965031169239071,-0.4852910364552033,-0.1346832076214601,0.005057099252704543,-0.9131573083778967,-0.22439062817084696,-0.8318112930525904,0.6558405836091598,-0.5621009012998334,-0.19976879692037428,-0.6456048532811488,0.8491476491216413,-0.2605334541363936,-0.29671504186683145,-0.374622844274706,-0.5108123797629748,undefined,1496113287486
903d185fccf839df,-0.20521139709350758,-0.4577618547824075,2.3806531735652867,2.2848056212758223,-0.5430551427062211,-1.5207636851218036,1.8688287969944493,-0.2514460320858473,-0.6463256986790884,-0.10783542668185167,-0.10919679172734616,0.10193229414496002,-0.9175091911764707,-0.37252402218573827,-0.8054954448236307,0.4436766803716853,-0.7143570185745113,-0.25135062184946855,-0.6536721765950982,0.7981479992170825,-0.30052052869491197,-0.3610539953579226,-0.3632126946132906,-0.4855313785680273,undefined,1496113288979
903d185fccf839df,0.19673283894856766,-0.48946072313694705,1.764334475492825,1.694503646374005,-0.3507743253058808,-1.4883034079326107,1.7566123423599038,-0.8713526587150427,-0.6303648218044914,-0.17248202180322098,-0.07440639401958478,-0.0362736585638459,-0.9305648395721926,-0.2891989718638937,-0.7791796554925413,0.43761488686743916,-0.6668767709947931,-0.20111771268898226,-0.6535812153193751,0.7724633939762394,-0.272970596774778,-0.31317444475605216,-0.4438026624079598,-0.5306255977040052,undefined,1496113290490
903d185fccf839df,0.2189090517200197,-0.35386014165893726,1.1122866637009277,0.8499795907271934,-0.3357572038927435,-1.525946241349997,1.836766201216263,-0.41400876803003683,-0.5136611745900134,-0.4081340214347368,-0.19555103036140992,-0.062388848824814054,-0.5301916221033868,-0.27531146779384447,-0.7402322313295522,0.4517591470832708,-0.6319174405171528,-0.17770481904440757,-0.6334793773158919,0.8323017524150917,-0.23498860430971233,-0.39041625981912914,-0.5228876661090175,-0.559932462410253,undefined,1496113291982
903d185fccf839df,-0.08324219234511165,-0.33155351327433985,0.8615480335652177,0.7498022792402707,-0.5767099457366949,-1.552692895691404,1.8577047210105746,-0.4967418933271782,-0.3448316863321676,-0.5600555692343637,-0.09391945112383629,-0.12468282057747299,-0.20380041221033868,-0.42529656355347445,-0.7686533103111703,0.5366247931724252,-0.6929023093066161,-0.265150106432559,-0.7012574836543236,0.593133094943209,-0.3337914527360762,-0.3808767100622796,-0.559432951065551,-0.5217125374846379,undefined,1496113293483
903d185fccf839df,-0.31054851127413396,-0.37968880157627827,0.6484524225150511,0.7776062875606514,-0.9039391083777676,-1.6668768629460284,1.9123494716042635,-0.5263974288586799,-0.4235557564461566,-0.6385281515611275,-0.0332774477876508,-0.11983065787867038,-0.7956564728163993,-0.4808466316367696,-0.7981270193935853,0.46186223047275277,-0.6343922006787747,-0.35491325091319254,-0.7716523977683487,0.39393880351921245,-0.4278729425829342,-0.33984302809482686,-0.5326215259936169,-0.4543483477973707,undefined,1496113294986
903d185fccf839df,-0.24817791285442511,-0.37205760660070025,0.5476467142937147,0.6245454376546097,-0.8699860240141893,-1.6246850246425815,1.9207385457008157,-0.4013301150507751,-0.4021756274495415,-0.6716256540141413,-0.07779722588829971,0.059441716938246354,-0.7956564728163993,-0.5243607808377833,-0.8518113165033664,0.017328525733694422,-0.6086475000759021,-0.4949219694616774,-0.8413826148429723,0.064319678249732,-0.5702205447106005,-0.36293126975604295,-0.595532840872865,-0.4391499507877425,undefined,1496113296491
903d185fccf839df,-0.12759468689883519,-0.3972992515199199,0.4404608979571039,0.42174383254471565,-0.8137952616671851,-1.6100900142123418,1.8765078304409477,-0.6597898421072025,-0.4200236837693058,-0.6033255407706657,-0.028002852044412316,0.06316966797688885,-0.852230949197861,-0.5123249526109236,-0.9002324262979944,-0.14027891092126765,-0.6916215591733018,-0.575888653640757,-0.89253629932752,-0.11453326501654443,-0.6536961471166117,-0.34115289838356583,-0.5519772351881425,-0.4295555673773009,undefined,1496113298045
903d185fccf839df,-0.16224498484881927,-0.41373572992330343,0.3064778651254922,0.2999093972932032,-0.9392293391338516,-1.602072771089383,1.8565896728192488,-0.8273357682574743,-0.3438958701315217,-0.667722060641328,0.031583472322450866,0.039246987844528326,-0.5998217468805704,-0.6382383660152853,-0.9318113808575355,-0.5019676710432326,-0.8985683385792821,-0.7233955783725305,-0.9348809995483882,-0.36877700208812036,-0.7897471966065029,-0.44269777457562587,-0.6153374751936485,-0.4443018002118461,undefined,1496113299516
903d185fccf839df,-0.31609256446699696,-0.42136692489888145,0.3683652950490785,0.27757468987783873,-0.8906705643874948,-1.5775598568122429,1.8257473126570865,-0.9772118954345466,-0.3477191792263516,-0.6192172566937021,0.04092937625051474,0.02132484138515724,-0.7651932932263815,-0.6224991990528209,-0.964443009691276,-0.5444004375583666,-0.9245082061615917,-0.7206027500723841,-0.9620426195184585,-0.4427357309625247,-0.8088963787204823,-0.43788701197645136,-0.6486384008231566,-0.5055059982465322,undefined,1496113300979
903d185fccf839df,-0.4671682210049724,-0.44367355328347885,0.3020116623763254,0.3934880388320626,-1.0089252236368715,-1.5607217868674077,1.8660122790561668,-0.6987225783348833,-0.28719881577767326,-0.5642441936862747,0.05116336054687658,-0.008654525422734476,-0.8087121212121212,-0.5678749947926697,-0.9423377113144388,-0.4171021804100466,-0.7938702228001474,-0.6492304761403664,-0.9171510808786443,-0.3949389559741559,-0.7483314902341686,-0.39302423708775364,-0.6032530170286674,-0.48023140814130094,undefined,1496113302487
903d185fccf839df,-0.08878624553797466,-0.34329378400877525,0.7390499577519483,0.8386164564265087,-0.6372515564605882,-1.6906537366554124,1.8419574505376102,-0.8152244071221662,-0.35415877032340776,-1.0210425586195622,-0.022736730251703027,-0.04284651106589442,-0.9392686051693405,-0.43640656033412656,-0.9107587273059625,-0.12007280067174685,-0.5944398898537296,-0.5238888540635349,-0.8852246323773525,-0.059930374206133535,-0.6154628226177187,-0.3921613250776726,-0.287600683719384,-0.5223919418939981,undefined,1496113303976
903d185fccf839df,-0.0818561790468959,-0.40727850648798347,1.2507348827339086,1.2732458822447716,-0.4768563917413809,-1.714078894855562,1.7787921403880347,-1.1425587074278944,-0.3652999549614703,-0.9379978429522117,-0.11859166447567442,0.07321776180042787,-0.9218610739750446,-0.2373522684177523,-0.88549556807567,0.310316756910366,-0.532571313891407,-0.3548309211228034,-0.8651437855588979,0.25920240757391866,-0.47344154919419,-0.4009914798505539,-0.09352300662121735,-0.554031966343301,undefined,1496113305493
903d185fccf839df,0.04981522230523951,-0.5510973563956775,2.0999284164932104,2.024260004097609,-0.33082006643352807,-1.820455250075587,1.7843462921121465,-1.1600258805801673,-0.26923986396541993,-0.9966024815828342,-0.3642231413727248,0.06439022485204483,-0.5954698640819964,-0.1503239570649504,-0.8781271352833909,0.8013243060643828,-0.4803547212362651,-0.1693073361323624,-0.845174887494256,0.5744701802200682,-0.3251754449997102,-0.44056772019277707,-0.13490935225739428,-0.6025717752337737,undefined,1496113306976
903d185fccf839df,-0.1899652163077246,-0.5205724888093882,2.53824197108104,2.5189610006419003,-0.46854555551211574,-1.7908110240371906,1.876042364131818,-0.6169547362075176,-0.3295161462184291,-0.641345617872722,-0.4482843102810839,-0.0003087541994949719,-0.6215811608734403,-0.09199633636454721,-0.7823375457949318,0.7447474347893854,-0.467738144080086,-0.02785470708429536,-0.8301107546187974,0.8220771823232405,-0.20892785202036232,-0.3947692566320286,-0.2774173816689435,-0.5900599711932837,undefined,1496113308494
903d185fccf839df,-0.1982812960970191,-0.4430864213733881,2.5012373440124485,2.3945991903446022,-0.4449810247312797,-1.8245686893652866,1.9612743734764775,-0.1040704296109738,-0.3528056037139847,-0.8058407398883402,-0.4659014096679247,-0.04872422311222979,-0.5954698640819964,-0.06051802834116773,-0.7833901758957286,0.6275521479716611,-0.4509584919403132,-0.008919204879860244,-0.8414735752623069,0.8670252438405235,-0.2032288611716563,-0.4101700606401204,-0.18322897517582454,-0.6024055074581504,undefined,1496113309978
