UUID,iqrAccX,iqrAccY,iqrAccZ,iqrAccXYZ,meanAccX,meanAccY,meanAccZ,meanAccXYZ, covarianceAccXY, covarianceAccXZ, covarianceAccYZ,pressureDerivative, pressureIQR, iqrGyroX, iqrGyroY, iqrGyroZ, iqrGyroMagnitude, meanGyroX, meanGyroY, meanGyroZ, meanGyroMagnitude, covarianceGyroXY, covarianceGyroXZ, covarianceGyroYZ, class, timestamp 
903d185fccf839df,-0.4803353818434318,-0.34094575324428206,1.1036735812795446,1.0348276768664266,-0.920488803560916,-1.4526590623068725,1.9064350357581106,-0.19368646928547747,-0.655934236622586,-0.7462703493503189,0.09188880710152177,-0.7799964721358721,0.005089962121212133,-0.6502742071929194,-0.33075799937893746,0.25980155194836785,-0.7518351682063777,-0.8106259823185082,-0.7313683753929296,0.1921071263645333,-0.6285385323019357,-0.5944079279827313,-0.8715012119658064,-0.06288772233698973,undefined,1496199656350
903d185fccf839df,-0.44429896707900274,-0.4967984106134644,1.4214032195571618,1.4494485434502702,-1.1014423594326022,-1.5513300513352675,1.931555221507451,-0.24820740233240488,-0.4173979535948185,-1.0871059286658127,0.039321112487928994,-1.034136235108418,2.111401236631016,-0.6428675556232593,-0.7728638307143576,-0.2615153463006201,-0.8425603529427147,-0.6602839181548049,-0.8637345019294693,-0.03297804424328984,-0.6681733740033884,-0.5540777754350772,-0.7941368831573296,-0.305396877901021,undefined,1496199657764
903d185fccf839df,-0.35490104033326725,-0.5246816230242303,1.1894860989642233,1.019007800104076,-0.8367735145546094,-1.5816977518617914,1.9481108838590235,-0.12596305208012817,-0.42349493772897523,-0.8637115281816482,-0.02462802808855526,-0.6163636757737575,2.0374192290552586,-0.6169441974248012,-0.8191796729451583,-0.24332990925843878,-0.8413339428932576,-0.638772511471145,-0.8476490678270663,-0.07449020664394505,-0.6649731547090206,-0.5401091817189108,-0.7290842838749604,-0.38746628392871274,undefined,1496199659261
903d185fccf839df,-0.37569123980650354,-0.4530657347974364,1.1901242368442255,1.1551215646677762,-0.9796748251141687,-1.4910100650201978,1.8522048032644243,-0.5973989327815065,-0.4766967416356144,-0.642588764368366,0.009345117291642084,-0.2862175284092356,0.2400916332442068,-0.6836042169610376,-0.9097061119296334,-0.4615555494707163,-0.925940593335115,-0.7197848954071304,-0.9221228155569063,-0.22598721990330667,-0.7633255953713539,-0.4993722804353538,-0.6762231349760164,-0.3984240928569304,undefined,1496199660761
903d185fccf839df,-0.37984931420656054,-0.46363206321960604,1.4249124696232747,1.518138144393969,-0.9333356279290376,-1.5658857090930651,1.8265730788010848,-0.840194176220169,-0.5338244057229216,-0.5090511338995567,-0.0931113875717359,-0.06456785862454625,-0.21250417780748662,-0.6761975653913774,-0.9412850885758758,-0.4635761096191697,-0.9116994952397487,-0.6890253825164523,-0.9427129895032708,-0.2217407774902699,-0.7545901970466902,-0.5144130211594667,-0.6941339886309144,-0.43158495597062185,undefined,1496199662307
903d185fccf839df,-0.3050045270920904,-0.32685739328936875,1.582501013002079,1.5427306493194086,-0.7405610885886414,-1.626695156710846,1.8134056381933041,-0.9134831427385764,-0.7583566625874207,-0.34378633311720574,-0.14319474889034492,-0.08392759783809764,-0.16898534982174687,-0.6123150207676018,-0.9328640183205661,-0.3888136599783833,-0.9225744343720017,-0.6634330065859871,-0.9439453679434352,-0.18759009749121475,-0.7390046274590085,-0.507157362971796,-0.6632215621013713,-0.46332330727764687,undefined,1496199663808
903d185fccf839df,-0.26203811484740214,-0.4524787782552997,1.5155097507232225,1.3513971058826497,-0.5578665399159163,-1.6864867291303045,1.872037163505228,-0.5880291838563054,-0.5994614796973178,-0.6060978672238948,-0.14265606590499524,-0.15911943363196285,0.5882422571301248,-0.6002791666391931,-0.9739167174096164,-0.2877832217896655,-0.9114934439182273,-0.6569819994949375,-0.9574107312380484,-0.14633106362708964,-0.735857041220398,-0.48666785700276266,-0.6118592195198683,-0.5261931080601011,undefined,1496199665277
903d185fccf839df,-0.45192200571377966,-0.4061044764917407,0.9712858931479382,0.9394721710375817,-0.39231825022884487,-1.6239070599334644,1.8713218517255075,-0.5239373672148157,-0.5725417613313536,-0.7221215596901456,-0.018307201660080503,-0.22456081302435607,-0.44315396613190733,-0.6280541877300662,-1.0707589369988724,-0.28980389499700493,-0.9642027376850355,-0.6608007651635849,-1.002834026862199,-0.20695474211058718,-0.7646716771829676,-0.47655000609980275,-0.6267627086730961,-0.5251270002725983,undefined,1496199666753
903d185fccf839df,-0.3008464181866237,-0.49004779659105313,0.5935832385867413,0.5492110401426243,-0.5872424986558656,-1.541468294980671,1.8395564321188878,-0.6785091181620905,-0.47506449084799274,-0.6190689818606473,-0.055037492552195415,-0.10614106901942062,-0.8739903631907309,-0.5873175522938369,-1.0623378667435626,-0.158464347963449,-1.0082637535898715,-0.6692742438814485,-1.021732412868826,-0.1280377081752332,-0.7540205335327688,-0.4774199921199799,-0.6782548887175771,-0.5219504529612129,undefined,1496199668238
903d185fccf839df,-0.10403232280752847,-0.42195393989700286,0.6069818468342418,0.6756515033727251,-0.7118125771952027,-1.5788851939031938,1.8301206910061953,-0.7980556954619346,-0.610072405996014,-0.44086235524470785,-0.05858749657476519,-0.005840456952141118,-0.8957497771836007,-0.6169441844740268,-1.024443087405838,-0.09784617267085505,-0.9728769999131819,-0.6887607118259337,-1.0095999426373903,-0.14993429765370184,-0.7668066838162514,-0.4556828400548708,-0.6857565805911138,-0.4981632188455279,undefined,1496199669760
903d185fccf839df,-0.18580721091848706,-0.2299997724593781,0.7294799226475113,0.895787670467509,-0.7566582196758095,-1.7554881110840885,1.8956764987893562,-0.6172276442176438,-0.629706967670593,-0.48017375056432826,-0.12232114821798006,0.020017257793093244,-0.9566761363636364,-0.6326833643872656,-1.0465483710582077,-0.07764006242133425,-0.9880589843230294,-0.6653478178048657,-1.0258185503779864,-0.13975592398863637,-0.7605676260381474,-0.4574841372657751,-0.6991999337081088,-0.5031864604180971,undefined,1496199671257
903d185fccf839df,-0.051363817475329886,-0.3996472822844131,1.0886801366059375,1.0793461260558068,-0.5911819290818028,-1.8386652432828972,1.9245333536701394,-0.4713657944098804,-0.6451247104779888,-0.5025387564193738,-0.13045530594643612,0.0008551678159103664,-0.8870460115864528,-0.6289800321270482,-1.0149693870497314,-0.15442317113709927,-0.9077283020449253,-0.6575012998964939,-0.9880637592116404,-0.09436130868424475,-0.7344037678866969,-0.44750687077717216,-0.6800333132573106,-0.5190633984696322,undefined,1496199672762
903d185fccf839df,0.051201270108864994,-0.5070711730805887,2.003588402747142,2.0831613393938473,-0.4925935152320667,-1.8862213204967464,1.951725544005957,-0.3083518771472562,-0.5114300612117015,-0.507039043526615,-0.18207551876750597,-0.005839473424907806,-0.8696384803921569,-0.46695907576362217,-0.994969378323423,-0.09986674695166912,-0.9106270903387488,-0.5843494677004059,-0.9645754652576787,0.055681144404024455,-0.6703178677246668,-0.440522609728452,-0.6334035540524849,-0.5194759414106999,undefined,1496199674293
903d185fccf839df,0.11218588973576783,-0.4700892281989413,1.9308551702330135,2.1255832324110666,-0.42123135215994806,-1.8377614998417564,1.8764263018197267,-0.7135657913769046,-0.5183660179035855,-0.460274347385152,-0.16451730123624686,0.03637205413214499,-0.7564895276292335,-0.45862659922314175,-0.9518114043083115,-0.1281552673833324,-0.9080761061211045,-0.5349018440708261,-0.9369380617993218,0.11907654436023514,-0.6249903407514982,-0.4500090005811736,-0.6361003281710819,-0.5515059883735216,undefined,1496199675833
903d185fccf839df,-0.1303667134952667,-0.5152894122822804,2.0456976245818526,2.1447866531190263,-0.6561875253485757,-1.8290804252894832,1.9168595772117636,-0.5152445077949562,-0.37463938684019854,-0.704252985978033,-0.21401882816317802,-0.031531710350681016,-0.8043602384135473,-0.40029903032583675,-0.9339166705080643,-0.17462928138662007,-0.918916603542776,-0.5028001523652695,-0.9072296031044524,0.18858512982415923,-0.5816653446348684,-0.45986539732736653,-0.6627814991574437,-0.5843672561989192,undefined,1496199677258
903d185fccf839df,-0.06106584155202068,-0.5510973271676851,2.0546295218062873,2.093616318154044,-0.6709989321887789,-1.8460372859528626,1.9848611037873978,-0.09871229967429945,-0.41853132175909347,-0.935426426989099,-0.23437214692514133,0.05302955002186563,-0.843527183600713,-0.5039924760704432,-0.8644428997996296,-0.12007280067174685,-0.9064854511464093,-0.52143167332302,-0.8931870043906575,0.20570820397405248,-0.5834950009213947,-0.4590371870653096,-0.6668581569458922,-0.5862808168184163,undefined,1496199678756
903d185fccf839df,-0.09571636378716802,-0.5047231423160955,1.3381429992555423,1.4975151061200447,-0.7793176074808342,-1.849298219654626,2.000676762244439,-0.04604906809629633,-0.48919062836382443,-0.7373184945242978,-0.18230339779890387,-0.04880692215480594,-0.8913978943850268,-0.5558391536150356,-0.8118112769640481,-0.12613462244071447,-0.9206942974619057,-0.5284739071241398,-0.8708741752328641,0.16197662018551817,-0.5931560667302913,-0.47384254040918794,-0.6802246434478131,-0.5659976484464471,undefined,1496199680259
903d185fccf839df,-0.17333305672913554,-0.5839702255184674,2.0374031028265716,1.8995774905683749,-0.7012080253970233,-1.90892208593302,2.0228933597131906,0.07366219797142703,-0.5061802270279319,-1.1158177150383053,-0.12888841341197158,-0.016965195982791816,-0.7956564728163993,-0.5493583270161956,-0.8233902227972807,-0.04328976261778566,-0.915844266921483,-0.5191518129181489,-0.8474068711915823,0.23659748669706196,-0.5693226779994726,-0.4756223200266145,-0.6815736634600418,-0.590346300976951,undefined,1496199681764
903d185fccf839df,-0.030573618002093596,-0.5886663455034385,1.8472756268544435,1.9009145116852337,-0.611763603878482,-1.9040586354156086,1.9320887926389778,-0.5137669669437284,-0.5237365454112342,-1.060609866461495,0.027232180499548595,0.010434250682846985,-0.8174158868092692,-0.5289899963473064,-0.8570744817318181,-0.0917843650342482,-0.9876697024114051,-0.5135914881479321,-0.8696007560019814,0.25096423816970836,-0.5704128269546161,-0.5122232304557833,-0.7130153753315075,-0.551148627540399,undefined,1496199683269
903d185fccf839df,-0.09987428291288121,-0.5869052858950783,1.9499957487157862,2.108658923721323,-0.5535465521810674,-1.9158189651566382,1.8986639550002966,-0.722554731102761,-0.5265194362704414,-1.1529600676238674,0.044413381000267795,0.025921704318014858,-0.7738970588235294,-0.5326933091813619,-0.8265481130996711,-0.053392761213102984,-1.0268609684832748,-0.5153013823982346,-0.8755410476655306,0.29104639110097497,-0.5709469183895307,-0.5147907989195747,-0.6789929480493513,-0.5195089791958958,undefined,1496199684755
903d185fccf839df,-0.15947302726320722,-0.5047231130881031,1.7630581997328205,1.989179144735103,-0.5827167905105624,-1.8766085526225806,1.938587036473886,-0.4467814500069257,-0.532959209583834,-0.9096862370862743,-0.03705869502323641,0.06134161451385953,-0.8783422459893049,-0.5539874648210714,-0.8423376014227923,-0.10390781071913269,-1.005769674557391,-0.4632319193830581,-0.8739317809192124,0.30978629393188045,-0.5435209255902177,-0.5211253655676611,-0.6924270053373891,-0.5399290399122538,undefined,1496199686274
903d185fccf839df,-0.31332064138679466,-0.47713337894840563,1.572930977897642,1.6761357527299563,-0.6473521130369074,-1.8598473476367177,2.0109750752268813,0.04379597058747348,-0.5231510483270644,-0.752095965684197,-0.18469699973858295,-0.0038040565892767217,-0.9697317847593583,-0.5012149493548842,-0.8686534275650506,-0.17058790670721963,-1.0270328226139946,-0.4598501264129008,-0.8994211617990571,0.34581865814745205,-0.5406000313612421,-0.5097925199544313,-0.6912326850467908,-0.5458369801383598,undefined,1496199687773
903d185fccf839df,-0.2218436256829161,-0.5193985172691302,2.3793776602161305,2.337320532319089,-0.6617006638004552,-1.8679624173580482,1.944535659765066,-0.39366494842131444,-0.4171586383227974,-1.012682491755903,-0.34303281061065555,-0.09306662281514828,-0.9175091911764707,-0.48825330910797893,-0.8749692449810005,-0.12209347387908631,-1.0316674963523271,-0.4332897610839256,-0.9031574584646472,0.2893371583926742,-0.5370013016388306,-0.5110264224844839,-0.6507045680378281,-0.5267012022789946,undefined,1496199689257
903d185fccf839df,-0.12482266030240369,-0.5557934763806486,2.6371340280732185,2.5349948112391165,-0.5615076954804342,-1.8883525758783388,1.827177939359093,-1.114186313162327,-0.512756027611534,-1.1694753259868105,-0.2681929921271088,-0.05816260990303698,-0.4649133801247772,-0.5317674712597671,-0.8728639553304717,-0.08370184179321957,-0.970658481486641,-0.39638136530993856,-0.8998059857488657,0.3417226683200871,-0.5152739465677394,-0.47389545740169553,-0.6321833735420243,-0.5660082947500621,undefined,1496199690760
903d185fccf839df,-0.1123485061130522,-0.6162560942571322,3.0186650016405294,2.942927543415521,-0.6301338601575431,-1.9448925284034657,1.8489527366548435,-1.0482494957781432,-0.4077463923105153,-1.3845168070822824,-0.2211616209340356,0.06426391451971492,-0.4649133801247772,-0.4789949298920309,-0.8349691612682795,-0.1079491571338116,-0.8721561460054283,-0.34368494152402657,-0.8699855785754514,0.40805917107383005,-0.47015417499080236,-0.48244770898433376,-0.5842657790139868,-0.5762567190646882,undefined,1496199692258
903d185fccf839df,0.04565721691600198,-0.6092118996656795,2.713695579593461,2.8187658736460857,-0.4494450219211926,-1.9582949700702261,1.8674770879655924,-0.891166526472918,-0.46435731859666707,-0.9545901358178264,-0.09106991110360403,0.1610814100265887,0.1487020944741533,-0.47992083256749846,-0.8549691847190555,0.049658265388789695,-0.8098607409948309,-0.29431964437944647,-0.8472039623487564,0.4863602661143479,-0.4277613004814156,-0.44149279943352415,-0.579450756612612,-0.5510519326376309,undefined,1496199693754
903d185fccf839df,-0.033345575587705636,-0.6215392292402248,2.297712022203668,2.2988566954129372,-0.3738554307705457,-1.9422395244609127,1.979425296885476,-0.17252666955864213,-0.3481905816266253,-0.6736731728351396,-0.08484743138701935,0.23683095248148475,0.12259079768270946,-0.4521458244274,-0.8265481204619048,0.12240018314584426,-0.8003801834072738,-0.30507298390635784,-0.8101558495152662,0.5515418847730416,-0.410525241132224,-0.4562817452050726,-0.5778392541624351,-0.5346912374280749,undefined,1496199695289
903d185fccf839df,-0.1400687375719575,-0.6056897658349626,2.297712022203668,2.332714546806726,-0.37063600657723916,-1.9326570342126357,1.997499943423767,-0.08210015824102938,-0.34976129607360124,-0.6188958615221792,-0.01151393071105256,0.07363225553972816,-0.5388953877005348,-0.40307655704139567,-0.8297060181265291,0.06582314228251772,-0.8234879013861989,-0.33920754977383394,-0.8107365862677739,0.5979527986077222,-0.4129238586998058,-0.4682992782607403,-0.6089445936412036,-0.5719887154631852,undefined,1496199696765
903d185fccf839df,-0.005625378634210056,-0.5516843713937988,2.5631245197990853,2.4457138396130187,-0.40481537565150116,-1.8791218008285198,2.012410940585379,0.06607288644498208,-0.43307824417541496,-0.3755036815454497,-0.05702333350276901,-0.012393029779015158,-0.6041736296791445,-0.47806913082275976,-0.8476007519267764,0.16079170217282485,-0.7940894410609327,-0.44593031706263986,-0.8154174522793743,0.5209605702454557,-0.4733343427931648,-0.4589508373705773,-0.566799047065561,-0.568059120993981,undefined,1496199698252
903d185fccf839df,-0.1303667134952667,-0.5328998476119259,2.3238705925447682,2.249723531668238,-0.6522789603199173,-1.8986804223555878,1.9678331043623323,-0.3166973316164834,-0.3076171558048031,-0.7328409384707693,-0.016450258375929765,0.005050916947458647,-0.4779690285204991,-0.566949182772624,-0.9033903313248525,0.12846197665009035,-0.9006449798429081,-0.561759856108249,-0.8390736696393227,0.4786918389762531,-0.5415122402085951,-0.43383459122040874,-0.587728921552814,-0.6074430096315583,undefined,1496199699759
903d185fccf839df,-0.08462817113791768,-0.5235075930279876,2.6492563605607145,2.594985938611479,-0.5366162915068757,-1.87938966394427,1.854209713254911,-0.9638281542922873,-0.393336875797814,-0.6598206321007773,-0.09130625310093687,-0.014330246132249787,-0.5563029188948306,-0.5382482978586071,-0.8781271205589234,0.09613230765679891,-0.9244703777871982,-0.5691060719256501,-0.8304046213668458,0.47273264085778643,-0.5434941118549246,-0.43444578754239754,-0.5845436890989328,-0.5861403628025978,undefined,1496199701261
903d185fccf839df,-0.13868272427374176,-0.546401207182714,1.731795542899501,1.7703189676744218,-0.585473356422639,-1.9247562550837518,1.9151896577737184,-0.6633488609225442,-0.3097849488691884,-0.6417606413789045,0.0009007191346112883,-0.0012706266925039073,-0.5563029188948306,-0.5743558343422842,-0.8823376409621106,0.11633824831799049,-0.9717522462750129,-0.5972623396205314,-0.8489881502417312,0.42729182949009126,-0.5712617939863917,-0.4033973162950706,-0.5868533264852258,-0.6376920674983494,undefined,1496199702774
903d185fccf839df,0.16208250649317385,-0.608624884667558,1.810271253922801,1.7237359865642772,-0.3603605955618942,-1.8799114130388954,1.9573980368859332,-0.29357863230879905,-0.3489473505070213,-0.3118840682978448,0.0174819637474088,-0.016387153826862927,-0.6563962232620321,-0.5382482978586071,-0.8781271205589234,0.07996745902779243,-0.9667986612381845,-0.5609935707925411,-0.861085636351496,0.4075202274756318,-0.5654097559655924,-0.3821908926714034,-0.6259332737847932,-0.6208756584335136,undefined,1496199704269
903d185fccf839df,0.27850755453247755,-0.6321055138204059,1.6533203401501,1.6994483527976578,-0.2805435952576479,-1.9238222299566998,1.9858525375981488,-0.18365165109877687,-0.34142286859997784,-0.18811940707733169,0.07451580515152287,-0.1039142780807078,-0.5737104500891266,-0.4799207678136257,-0.8644428924373958,0.2476778518809895,-0.7693909010502641,-0.5024011752581308,-0.8552642892677894,0.6883262798861078,-0.4804699066164487,-0.36151727701684605,-0.5059572305580544,-0.5397873748024088,undefined,1496199705740
903d185fccf839df,0.253559315164594,-0.6426717837865908,2.053991383926285,2.090847132063107,-0.32228295353167286,-1.934473841387875,1.9051543209475539,-0.7289472780963171,-0.3172747412538884,-0.3370199861127178,-0.00018145846355258522,-0.06899541046099082,-0.8174158868092692,-0.4799207548628512,-0.8160217973672353,0.2921312492063808,-0.7097137786601244,-0.4617120154252036,-0.8322937592758823,0.7635476869682023,-0.4469504826255765,-0.3904478648903792,-0.454228921153078,-0.5110762715183562,undefined,1496199707254
903d185fccf839df,0.026252996235571716,-0.5927754651042845,2.31366191128643,2.3444363829019816,-0.31928980765938614,-1.9496861016020912,1.9501240094094234,-0.41076209950289366,-0.32232234137140764,-0.4728929553422676,-0.056101108324195924,-0.055245687476929616,-0.9175091911764707,-0.5058441519136327,-0.8297060034020616,0.22343050827567595,-0.7273634970823866,-0.44966675655080407,-0.8390876624719752,0.8539673584133995,-0.42936495356493287,-0.42093881743486894,-0.44611332291698397,-0.4807838073771019,undefined,1496199708802
903d185fccf839df,-0.2232296044757221,-0.5692948359514366,2.0680276217798887,2.137811905974664,-0.5165180421183918,-1.9164874547060438,1.9397730956438606,-0.47329581952030736,-0.32391603735118824,-0.8399805458980094,-0.14493335337787222,0.06200389699235615,-0.7347301136363636,-0.5132508293848421,-0.8486534114765084,0.4618622022080312,-0.6568748766356513,-0.44458140314881495,-0.8336651344095741,0.8373062382596235,-0.4279037522225514,-0.44267668704761404,-0.421205883010521,-0.4666375259818081,undefined,1496199710252
903d185fccf839df,0.14822230450019686,-0.58925336050156,1.7279674780303365,1.7605054015318136,-0.31952637364995773,-1.9065602364972072,1.9882325175891613,-0.03484452777690335,-0.4109827349121469,-0.7226053097746348,-0.12448318945085038,0.016019758533709433,-0.4475058489304813,-0.49010497200039393,-0.8433902609725243,0.48813007769707656,-0.6027802563399579,-0.430750253625871,-0.8159841927675582,0.8931102028068658,-0.4087206800416261,-0.43157417230969236,-0.39008467189107776,-0.4611418249574796,undefined,1496199711753
903d185fccf839df,-0.05413580956635165,-0.5962975404790166,1.1677937313722901,1.3077771371929867,-0.6148493113696003,-1.8865241213531518,1.932075638907811,-0.5138783371769242,-0.49653999548889766,-0.416210735463185,-0.08796386281255701,0.09306912688966368,-0.8304715352049912,-0.5419515977418881,-0.8454955064496503,0.21938935971404777,-0.754324212360923,-0.4799888903189536,-0.8270531481005289,0.46681964097005507,-0.5187217162578202,-0.4166292051539796,-0.41833476460932406,-0.47878549602648907,undefined,1496199713262
903d185fccf839df,-0.4574660934120524,-0.5522713571639278,1.3119844289144422,1.42252374390983,-0.7062171564818789,-1.8726045886878473,1.9568668181575595,-0.39803215630267363,-0.45469828127580486,-0.17745423343097544,0.019647826043395822,-0.045084544638870155,-0.9088054255793226,-0.5752816852146535,-0.8865481613652979,0.13654430203806822,-0.8013170593410491,-0.5759583171396149,-0.8506603873561461,0.31457520961755003,-0.594118824979804,-0.4058712070589841,-0.4950217154086204,-0.4305184150104904,undefined,1496199714755
903d185fccf839df,-0.3756912053010938,-0.5587285513712554,1.2418032396464234,1.3274029221828854,-0.7739587533682407,-1.8631991204932803,1.8761028543253297,-0.9908855525839884,-0.3919087217105787,-0.009601459383371539,-0.005666073867210928,-0.05507172248926853,-0.7608414104278075,-0.6289800127008863,-0.8886534436535929,-0.08168125338004471,-0.8596989896675659,-0.6532392277385692,-0.8649968526405948,0.14084995066384665,-0.662196851776691,-0.42818116122949257,-0.5358273310709656,-0.43836838971915415,undefined,1496199716252
903d185fccf839df,-0.32856668415093876,-0.5311388172315579,1.6214195454367784,1.6904803291099988,-0.6297841372898472,-1.8719733649771415,1.8802658421122165,-0.9265092349769573,-0.39571434127558563,-0.3095049728827515,0.09377187998155108,-0.05996813008442139,-0.6868594028520499,-0.7058242752762146,-0.8739165780690347,-0.06955758157738794,-0.9479156393259408,-0.6772474177233987,-0.861449468993935,0.05167755445755681,-0.6882384153705731,-0.4449408587256401,-0.5731985319791965,-0.43662973129165517,undefined,1496199717760
903d185fccf839df,-0.29807435708478247,-0.6708485036964175,1.5046634398587813,1.6677200847892784,-0.5523328459721016,-1.9258183884760591,1.9006652480063928,-0.7728812752611737,-0.43244634534517284,-0.3275959224250659,-0.0069577606905775885,-0.07184310959541462,-0.9305648395721926,-0.6882334065690117,-0.9054955620775109,-0.0938048403885369,-0.9122449546514355,-0.6649995066888157,-0.8847138653301645,0.15880453818883974,-0.6696190052590347,-0.449913163169345,-0.5582322960267204,-0.4516422718482092,undefined,1496199719256
903d185fccf839df,-0.35351499252964175,-0.6362146188072556,1.8096333701797482,1.8754282686060906,-0.7091177255873887,-1.9244091992281038,1.9258377487583698,-0.6682999157618841,-0.3849641340780339,-0.3598563215867283,0.05035063764663427,-0.019639709845409022,-0.865286597593583,-0.640090022432313,-0.9065482142650091,0.05572005889303579,-0.924555310262404,-0.6722570594011936,-0.8600641009174838,0.22098345882774917,-0.6517091385334891,-0.4787028614327918,-0.5547542800734263,-0.4477480261485036,undefined,1496199720798
903d185fccf839df,-0.3147065511687812,-0.6908070282465408,1.6214197995737278,1.7414661845575545,-0.7735884723459162,-1.966328517329968,1.909451427139804,-0.8514989989494653,-0.3491262307894201,-0.28262578996449794,0.0345858615494081,0.09825641037943098,-0.8348234180035651,-0.6512000321637397,-0.8381270662951374,0.055720030628314245,-0.9120551808478593,-0.6550314521446808,-0.8484563918749394,0.218858473033066,-0.6391754212674661,-0.4790488853361058,-0.5413646468628872,-0.4789859138665902,undefined,1496199722289
903d185fccf839df,0.09139565575712182,-0.7219188523749667,2.0010363595010325,2.1539891490216547,-0.6851211877109001,-1.9513235575645889,1.8736334735868143,-1.0363531275909283,-0.3820505759781067,-0.10946576327482713,0.03352042580186233,0.0713664009680664,-0.29518995098039214,-0.6382383789660598,-0.861284980048304,0.10421466130949832,-0.9231790423763081,-0.6306876171747694,-0.8628628252131011,0.25350497255436205,-0.6287173701830087,-0.454537038896333,-0.5188491900206682,-0.5114591598208325,undefined,1496199723759
903d185fccf839df,0.14960828329300288,-0.6790667575121054,1.8377058458869557,1.9288972765649215,-0.6048618915011523,-1.938147051485392,1.957476943560104,-0.4348894035279785,-0.3501230513983036,-0.09721541533172719,0.0811764117533934,0.13329217056815815,-0.8348234180035651,-0.5428774939419684,-0.7707585631505303,0.11229709975636232,-0.8587656109685217,-0.6278124584585906,-0.8229460189047412,0.3191485471208209,-0.5994520614197282,-0.4529196615186032,-0.5272606870698178,-0.4984541295481059,undefined,1496199725269
903d185fccf839df,0.07892160508399951,-0.6303444249840533,2.1043943651054278,2.1692662990503893,-0.5861110666382424,-1.9160518882548219,1.9527538060641778,-0.4112550445766867,-0.4461874867862784,-0.10239875595675144,-0.023317267825289752,0.01914264479855735,-0.9349167223707665,-0.5678749947926697,-0.7433901142697089,0.22140989159777955,-0.8061305300085301,-0.6247156486183159,-0.7819377106256868,0.3566129645685405,-0.5809681193853392,-0.42134296744093713,-0.4491615646478619,-0.4795409537969163,undefined,1496199726748
903d185fccf839df,-0.1982813996132483,-0.5622506413599838,2.558658571186868,2.5022510723322156,-0.5893304909375764,-1.8717800387721522,1.8662121483094916,-0.935624340175906,-0.44578828709920726,-0.004209966365923341,-0.07272501952236797,-0.053919541679387804,-0.7608414104278075,-0.6252767128176053,-0.8160217900050015,0.1365444433616759,-0.8743609453921904,-0.5821012714214986,-0.8084136427138827,0.39027396643528367,-0.5688752644440367,-0.44491369370854866,-0.48116987958621116,-0.4677984155540123,undefined,1496199728258
903d185fccf839df,0.005462831267745166,-0.5998196012397526,2.1567112516506786,2.1641487352633644,-0.5674425294401844,-1.9009584176963497,1.830780770104288,-1.2111023682565123,-0.4299371824126869,-0.05457758259238937,-0.05632941724819363,-0.04465841309642375,-0.5301916221033868,-0.5586166544290454,-0.8549692141679907,0.1668534674123494,-0.8551273193623171,-0.5524567620399434,-0.8253249343458948,0.44384515738902525,-0.5522523898997691,-0.45406468109214554,-0.4226465037977035,-0.5044648674557637,undefined,1496199729762
903d185fccf839df,0.047043161203398264,-0.6620432787245967,2.1362949056818006,2.058809253274169,-0.4765375336107917,-1.9082023516738553,1.8131531796795985,-1.325049053174316,-0.4720002869074635,0.29854350520982165,-0.09084159661039487,-0.03129607620884104,-0.6433405748663101,-0.49565993477609,-0.8149691746286724,0.15270917893179622,-0.8429603522278407,-0.5381063120711499,-0.8093232281156165,0.48988651041771836,-0.5313940074244423,-0.47099021013590026,-0.394079832102928,-0.5104922365845305,undefined,1496199731283
903d185fccf839df,0.01516482083902623,-0.6778926836738741,1.646302348291773,1.7732793084173601,-0.48955922547333974,-1.9056844436865765,1.9311709818024692,-0.5807713333770523,-0.43553942177944693,0.07280721529525327,0.008781147846392806,-0.0034702808014990412,-0.843527183600713,-0.515102466375708,-0.8981271440096994,0.2193893031846047,-0.8344288395367832,-0.560968240202678,-0.826542380674083,0.5888831163399798,-0.5312667746324551,-0.46277331525199533,-0.4408516515913711,-0.49194719348549143,undefined,1496199732751
903d185fccf839df,0.038727115919513486,-0.7254409569776912,1.710103683581467,1.8847396223878101,-0.28255957013552485,-1.8876444866161024,1.9140009756091716,-0.6059284483838047,-0.4973160917711702,0.3729763917506582,-0.16664929565533407,-0.0023377743408268302,-0.9001016599821747,-0.5030666510996229,-0.8602323425852734,0.21130686473774069,-0.7970599486682605,-0.5290755355166687,-0.8308804036623054,0.5937182298525155,-0.517020229278742,-0.4761039535100183,-0.4615314829397566,-0.5140931336623266,undefined,1496199734255
903d185fccf839df,-0.027801591405662095,-0.6285833946036853,1.8026151241844717,1.8984780268375676,-0.2527619117786345,-1.842329138529209,1.9252696939261125,-0.47022321643348786,-0.5890424679126821,0.36258925160679867,-0.1483756530079441,-0.0013780004424001726,-0.9175091911764707,-0.4891791599803482,-0.8212849478712194,0.2537396453852356,-0.7874762153263093,-0.5487773226492453,-0.8242264370263014,0.5493707085826874,-0.5266421741708195,-0.4611005439344205,-0.4618037401574779,-0.5381529813581848,undefined,1496199735790
903d185fccf839df,0.05535927549810252,-0.6103859296619223,1.5078536209848932,1.6807782646324476,-0.3490668958165103,-1.8302543615540212,1.9342268144747474,-0.4343366933470865,-0.5450122873321239,0.45879069307781734,-0.12895671079584564,0.029473052388666533,-0.9305648395721926,-0.4836241195000049,-0.7897059638627433,0.30829604130594424,-0.7607509046906141,-0.5593090087764914,-0.7990169273764629,0.5883441728764045,-0.5174150556961987,-0.43223314562046117,-0.4602731974681461,-0.5372814239730992,undefined,1496199737290
903d185fccf839df,0.10525582324468907,-0.5375960114388855,2.030384856831295,2.106780600445869,-0.3621194481410516,-1.8240189876789994,1.868434335902598,-0.8154758569455937,-0.5939947025314433,1.0830259154431479,-0.2432411793721377,-0.021135371554326748,-0.9740836675579323,-0.47899494284280547,-0.8412849713219955,0.3325433566465362,-0.777733827483918,-0.5112609652622185,-0.784449566427759,0.6820745081539812,-0.4745121985677887,-0.42670576482341216,-0.4891477974534633,-0.516542255087701,undefined,1496199738755
903d185fccf839df,0.0955537301571788,-0.48946069390895475,2.008692743376311,1.9252025205458836,-0.37605657379178214,-1.8051032342352953,1.8510776178534696,-0.9275457401306393,-0.4638049284825678,0.6742597186174686,-0.1598767247303689,-0.030892853015328448,-0.9740836675579323,-0.5002890984825149,-0.8444428689866197,0.3972028076920053,-0.7806067063513049,-0.5061376133344452,-0.8089104177481043,0.6522631174737995,-0.48119022995091654,-0.4182883996504774,-0.4520244189136611,-0.5544225062850383,undefined,1496199740256
903d185fccf839df,0.28959572992902305,-0.48711266314446156,2.2064763490867687,2.475216369567924,-0.3480897600532767,-1.84761883807073,1.8838739261792081,-0.7328258735158767,-0.3916037887345261,0.665283050722614,-0.2328197599651549,-0.030299987507818878,-0.9479723707664884,-0.47714326699961584,-0.8339165458919502,0.5305628583445715,-0.7621751438624761,-0.45373883718160407,-0.8012139250497121,0.7567723657349978,-0.441324216717177,-0.40122999430380235,-0.35407962003189636,-0.523587603556678,undefined,1496199741768
903d185fccf839df,0.27573563145227525,-0.43075913564083135,2.2064763490867687,2.431998439183961,-0.3694840042758282,-1.817585628272487,1.895713310276477,-0.614144706626202,-0.37003886741495556,0.2195887479855463,-0.16979105781478668,-0.019452663032167257,-0.9044535427807487,-0.5502841390362413,-0.8486534188387421,0.32244024499233276,-0.8104983209039248,-0.49131852486912464,-0.7817068162276631,0.7582506114629375,-0.45591498324065904,-0.3881427465449028,-0.37865247904120314,-0.5342181373157472,undefined,1496199743256
903d185fccf839df,0.2521734398880172,-0.4847646323799683,1.8440856998652808,1.9260630681441149,-0.4169524882763206,-1.8189435748148717,1.8451500329899981,-0.9505080923625739,-0.4249070327013123,0.304974675566142,-0.22166336434869718,0.003451283091481715,-0.9262129567736186,-0.5299157695150284,-0.8497060415773052,0.46186231526691734,-0.7198800035641698,-0.5011282538890283,-0.7703859764738819,0.8720605241661945,-0.4312766727483216,-0.3889489858170133,-0.40709248274947146,-0.5699030781105715,undefined,1496199744768
903d185fccf839df,0.08585163706966853,-0.5006140665572382,1.8415339107561206,2.13519952504809,-0.24065564284544047,-1.8118766633359478,1.7909471040435065,-1.2340037372687103,-0.5348418201646593,0.341109374567921,-0.2578813300121892,0.005914746997943582,-0.8043602384135473,-0.5419516365942117,-0.7981270267558191,0.48004778057382025,-0.794561687786474,-0.49427600848681685,-0.7710506729566307,0.9155611338577981,-0.41753405832666474,-0.39756090737913485,-0.4679619688614124,-0.6398939746944039,undefined,1496199746248
903d185fccf839df,-0.08878614202174546,-0.45423976479367917,1.59079553475736,1.680637282437453,-0.48390209661935846,-1.807253124447556,1.8166902710995725,-1.1373684794509502,-0.5308831104207041,-0.10236384772199074,-0.25370376135760186,-0.024198160754046412,-0.7086188168449198,-0.5567649526843067,-0.7876006815744483,0.3709347626146307,-0.7863730905210797,-0.5406268234056019,-0.7769070032566835,0.7960537986414696,-0.46340104190781956,-0.38394001099142816,-0.5217482654895357,-0.5906009919424743,undefined,1496199747758
903d185fccf839df,-0.05552189187538687,-0.5270297122447082,1.8766246324586047,1.8555742146705743,-0.4839946679307147,-1.8349501097416798,1.9454455691446833,-0.32040315980919665,-0.5286060141067459,-0.2365639554833008,-0.15069412602597285,-0.029913734764160482,-0.7129706996434938,-0.5354707711430481,-0.8212849625956871,0.2921311926769377,-0.8080843310281326,-0.5699546853430641,-0.7823575189724344,0.6812121936877482,-0.49498998833791724,-0.400813174130983,-0.5792042125222905,-0.6052747157672205,undefined,1496199749292
903d185fccf839df,-0.2648101069384239,-0.5229206364858509,1.7445560132669995,1.734388817612875,-0.5161786179391181,-1.802941704488698,1.924841035961538,-0.4204803558062926,-0.5505048605267081,-0.4790321836002408,-0.07522986612878634,-0.0797666395789333,-0.8261196524064172,-0.4715882783223707,-0.823390208072813,0.3830585192114521,-0.7968624830682195,-0.5515701509438552,-0.7995696732213442,0.6291654523199272,-0.4982578327374636,-0.4136617581062615,-0.5832985363146326,-0.5864708169004509,undefined,1496199750761
903d185fccf839df,-0.19273731191497556,-0.6121469746562864,1.6220576833167806,1.7631082892375232,-0.42987133166669733,-1.84763980431922,1.9578556237361289,-0.2713450233719119,-0.38598789763774677,-0.427351387233853,-0.06864440459261699,-0.0240698219994239,-0.5214878565062389,-0.44566492012391273,-0.8297060034020616,0.20928630458928738,-0.8032349263854864,-0.5153583801149344,-0.8038587191940724,0.5343110310094148,-0.5084312693751375,-0.410327574945452,-0.5524148916814366,-0.5245574955571244,undefined,1496199752252
903d185fccf839df,-0.14977083065946778,-0.6456068295492055,2.050801711074072,2.0583384121228043,-0.2708030299695634,-1.8228799890948644,1.8413315436954791,-0.9498673953043391,-0.44485345104996954,-0.06939466704990224,-0.21258342580695222,-0.08751058708780812,-0.45185773172905525,-0.43825826855425254,-0.8623376469602697,0.057740732100375246,-0.8539549164918686,-0.5223626147701633,-0.8083296816440051,0.5096427219968055,-0.5202388113457395,-0.42315161152889613,-0.5352383903640062,-0.49547570791518936,undefined,1496199753766
903d185fccf839df,0.033183062726650475,-0.6567601729694965,2.2198744490603706,2.1686636619238393,-0.35622574428015047,-1.801888885127618,1.8117488578211203,-1.1242490524886952,-0.3693197856091901,-0.21587342550021868,-0.2734599384348828,-0.1426393373132621,-0.44315396613190733,-0.39011491679449034,-0.8518112870544312,0.06784367416624949,-0.8779266315511176,-0.4787666309213204,-0.7977155185164195,0.5985379497256493,-0.4782894214225429,-0.43484601156830066,-0.5542042275034509,-0.535824061903617,undefined,1496199755248
903d185fccf839df,0.030411036130218973,-0.610972886204059,2.358322922230301,2.310965739947498,-0.38287599146642676,-1.8328957169760067,1.827827491910678,-1.0440310536431998,-0.4831092238411218,0.039809428817387665,-0.22966755961521548,0.048253238832939103,-0.3604681929590018,-0.42714826529821315,-0.816021775280534,0.0031842796502235537,-0.8104870688026232,-0.39302490539899737,-0.8076509900714083,0.6112108697356017,-0.44451671788202485,-0.4449902442989641,-0.5225472716181971,-0.5325325253584292,undefined,1496199756751
903d185fccf839df,0.1482223390056066,-0.46187098899724954,2.180317524608719,2.2364835015730598,-0.4186496391284915,-1.862274411900879,1.8888731752309462,-0.6784689352290151,-0.5206024839816885,0.13221168914651332,-0.26308893514617376,-0.052042964171123744,-0.4649133801247772,-0.47066242745000136,-0.8233902227972807,0.021369744957126426,-0.7865515219895063,-0.4086926069384586,-0.8117511198504511,0.6281953510107006,-0.45107331044964916,-0.43441606674628996,-0.5150348715166848,-0.5346896271624259,undefined,1496199758257
903d185fccf839df,-0.0028532830269590824,-0.4976789331106465,2.329612308643091,2.3843678060421225,-0.3635800233341326,-1.8758864866855571,1.8857147770810205,-0.7313922514841158,-0.5482561226662971,0.9782133535803367,-0.20239924609755083,0.05606348272870619,-0.8391753008021391,-0.41881574990540904,-0.8297060181265291,0.09815278301108761,-0.7779793193307049,-0.4022076729505459,-0.8231279338832657,0.6903434751625864,-0.4322916688979001,-0.4659075530624916,-0.5157620158501866,-0.597072726834406,undefined,1496199759766
903d185fccf839df,-0.07631205684321342,-0.5745779855485252,2.0074164676163067,2.0342334528881567,-0.1781700426251634,-1.8511290024196547,1.927888983413513,-0.3918060558864184,-0.5109149496326459,1.105955334713444,-0.16392495212181998,-0.006473512041400105,-0.9392686051693405,-0.44566494602546186,-0.9002324262979944,0.2012038096129803,-0.7615466536981591,-0.38302518652957895,-0.8521297149487415,0.6659523371314126,-0.43405742405244696,-0.453602775963076,-0.529879500884585,-0.5988879812664372,undefined,1496199761280
903d185fccf839df,0.10941386313933632,-0.639736708795984,2.0661137164137813,2.0556927622447576,-0.1481563804353726,-1.8437616188492243,1.8886470288934214,-0.6421178041776352,-0.496989603662889,1.2438899424358871,-0.18489295109523085,0.019906111789520786,-0.9392686051693405,-0.3697465472732775,-0.9128640022320238,0.34668758859764637,-0.6828241555950839,-0.377876500623503,-0.8691459598327407,0.7458394702489483,-0.41541655541554634,-0.49449213396763897,-0.47197651640577715,-0.6067301012453113,undefined,1496199762760
903d185fccf839df,0.3727566658436071,-0.6673264429356816,2.0712180570429504,2.1572692143244168,-0.04602968133097773,-1.832255176400847,1.8579966396702572,-0.7768474975802746,-0.46210756699139877,0.9203328157261883,-0.19502052796349295,0.04134084164234565,-0.8913978943850268,-0.32067734464114594,-0.8612849947727715,0.5083363010054835,-0.7542245510379195,-0.39336055066644926,-0.8502545711508233,0.8678413566027453,-0.3887805122876241,-0.4855854236808389,-0.4454820383573165,-0.6462328289350651,undefined,1496199764280
903d185fccf839df,0.3242462694168753,-0.607450825443323,1.8964025864105314,1.9914898763675197,-0.24100535254570682,-1.8493471358681304,1.882843033270002,-0.7022836211399501,-0.37427417375859834,0.3364078975670669,-0.15386872335353652,0.05316441134784416,-0.8913978943850268,-0.3438232020255941,-0.8444428689866197,0.47398584574596647,-0.7468384550470953,-0.4089775892489146,-0.8594693722009463,0.8271894636266438,-0.4086334115529113,-0.48676166723816455,-0.40211226235406133,-0.6378115361058788,undefined,1496199765759
903d185fccf839df,0.27712167925590075,-0.5475752079509645,1.7305195212764461,1.8405568226672384,-0.1594809197233011,-1.8748802567949387,1.9300427882601514,-0.39827184501456436,-0.46712750758281163,0.04738735241605456,-0.14987012236149014,-0.07313516725842943,-0.8000083556149733,-0.36419157154680687,-0.8602323720342085,0.46388284715064915,-0.7481575733504409,-0.45302954467710993,-0.8694118410500595,0.7268377927819336,-0.4539952289395439,-0.4888190475102136,-0.39831480835864036,-0.6129372124067688,undefined,1496199767250
903d185fccf839df,0.04842927801784322,-0.459522929004764,1.331762382866369,1.4061831353051568,-0.40157537279622496,-1.8858393274576655,1.9360334857879458,-0.47016005927988586,-0.45241574824730507,-0.158066507778118,-0.09778631727209931,0.01271683552324256,-0.7956564728163993,-0.42714821349511495,-0.8318112930525904,0.37497619382347425,-0.7647525143845272,-0.5130848497691378,-0.864409121438396,0.6498763614047957,-0.4934758848374491,-0.49640879872278276,-0.41252449169069394,-0.6061348833114256,undefined,1496199768767
903d185fccf839df,-0.07076807266116988,-0.4671541385943382,1.7821987782155935,1.6774442668312823,-0.4786358151504684,-1.8821218607363532,1.9577083442669467,-0.3433704103010549,-0.5152229390064647,-0.09990407632202081,-0.14282443292023206,-0.04729867505088365,-0.7173225824420678,-0.44196156843753354,-0.8370744509188083,0.005204868063398404,-0.8215353418984198,-0.5399681984646096,-0.8517798779650373,0.5379450630846783,-0.5336677352066518,-0.43996509373433124,-0.5118298866915647,-0.564144308714016,undefined,1496199770252
903d185fccf839df,-0.23986176405431114,-0.5152894122822804,1.9895524190304879,1.987805218185424,-0.505255196981477,-1.8656005656398886,1.885522797238087,-0.813521425470457,-0.41429188623097285,0.08762055232940476,-0.03484251136118282,-0.02774317556758278,-0.9653799019607844,-0.5030666510996229,-0.8686534128405831,0.07390560899410327,-0.8849702057752995,-0.547124423950806,-0.8525635207098203,0.5421180402659188,-0.5377221482745816,-0.41524624613447586,-0.5227162393879453,-0.5140173108190209,undefined,1496199771770
903d185fccf839df,0.13990615570008288,-0.564011686354348,2.3564087627272436,2.1989143911906393,-0.37700284343154755,-1.8887066198480387,1.8740594797499672,-0.8599802253735144,-0.45873605197705614,0.319047182912478,-0.02348996872922012,-0.01872244678154983,-0.8609347147950089,-0.511399166492427,-0.8265481204619048,0.043596387090378996,-0.9031436917203511,-0.5342115520085338,-0.8320558683055473,0.5747319469134151,-0.5186690556507876,-0.3969465180885125,-0.5623241038110443,-0.5124939894915476,undefined,1496199773306
903d185fccf839df,0.44482942636164574,-0.5939494804865311,1.9748780432968818,2.116891414415941,-0.1757528938285206,-1.9010748796210002,1.9045783767049056,-0.6278592365072589,-0.5418968749696208,0.6651113137238677,0.03465436355459315,0.011513381639485516,-0.8609347147950089,-0.5160282913465283,-0.802337561883474,0.09209101777156306,-0.90717922020744,-0.5378529952099208,-0.8253179398656185,0.5818460295711871,-0.5131896341914881,-0.38222806556590133,-0.522229097951813,-0.515511270126074,undefined,1496199774786
903d185fccf839df,0.22168094029481225,-0.5751649713186543,1.9940183676427052,2.1555599154087632,-0.257596192827611,-1.9115238467804,1.987643430090565,-0.1131015890293251,-0.4902746223001856,0.608325338832698,0.02146259978200714,-0.03291209765238953,-0.7869527072192514,-0.4864015685109166,-0.7654954200087799,0.3305227682333614,-0.7770885094218989,-0.48167345154879665,-0.8007241488816996,0.7303332424426171,-0.45502841092364643,-0.34849558887415993,-0.4519979035105982,-0.5358153443884672,undefined,1496199776273
903d185fccf839df,0.17594263947533137,-0.5851442262867179,1.7043612050722956,1.852738952597301,-0.31289210199691053,-1.9298223493854822,2.009694354131194,-0.009674459678099805,-0.4229184170182148,0.5252788424437942,-0.04569819205980971,0.11222638793865537,-0.852230949197861,-0.5354708229461463,-0.8076007197496918,0.43559432671898585,-0.7741831362393676,-0.5007672750585237,-0.7766971003984778,0.8228932950585371,-0.44121697838485197,-0.3287233874247477,-0.42033659906343035,-0.5335604888161842,undefined,1496199777763
903d185fccf839df,-0.009783384023447578,-0.5088322180749528,2.0067783297363047,2.2046114394960656,-0.46453413240478425,-1.9115191883916638,2.0062440582720216,-0.047261641432794585,-0.2898304627597627,0.1542243155146815,-0.06487272053772891,-0.04171171382994976,-0.47361714572192515,-0.6086116949827717,-0.787600688936682,0.3527493538371709,-0.7549685032547556,-0.5676811588120304,-0.8048032890172134,0.6569750454421115,-0.5056566576932667,-0.35692434787113003,-0.43913526207105436,-0.5632829079046519,undefined,1496199779252
903d185fccf839df,-0.0624519238610559,-0.5681207767272015,1.8581221918558342,1.8031292952203066,-0.4998552164149841,-1.9032434019403346,1.8982247757268245,-0.7790612100787098,-0.3224316132317019,-0.12813042341992972,-0.08574155153170206,0.019624089289498027,-0.31694936497326204,-0.6187958603172163,-0.8002322722329452,0.33052265517447527,-0.7403404918370775,-0.607243058280288,-0.8006191958438097,0.6346472987911067,-0.5265449962628153,-0.3649552685844911,-0.4087625819432341,-0.5738499963417862,undefined,1496199780756
903d185fccf839df,-0.19828133060242883,-0.625648290385086,1.8689679944463764,1.98476257397824,-0.550172845192877,-1.8896849001800071,1.8315486727156725,-1.2293848079827443,-0.3799212541697664,-0.05166601834600123,-0.003240577098408302,0.009756874011639376,-0.3778757241532977,-0.590095014255523,-0.7981270193935853,0.23353356340043635,-0.8095035753713452,-0.6203712487573251,-0.8232258912358181,0.6059599962170565,-0.5430266711119222,-0.37195332062258313,-0.4208925189699424,-0.5586251072290885,undefined,1496199782263
903d185fccf839df,-0.2384758542723246,-0.6244742750028394,1.6852208807264724,1.9414680411089893,-0.5332528769114679,-1.91998830101627,1.841328910225689,-1.190193150715974,-0.41584961321338937,0.33833217703830587,0.0006641129132032084,-0.01085013767950584,-0.5911179812834225,-0.5725041779252564,-0.8307586261406246,0.07188490752204227,-0.8328191653016455,-0.666418083282072,-0.7965260620314891,0.5384224109625189,-0.5666096419936312,-0.3838851406582368,-0.4812207565623574,-0.5902892384895916,undefined,1496199783761
903d185fccf839df,-0.41865768655660157,-0.6497159637640475,2.1650057734059596,2.2721580422228396,-0.6971451695974036,-1.9434553871912903,1.9199574825493733,-0.7404641808878534,-0.4199691975715654,0.25159868542848746,-0.028102594989820835,0.08067986109060388,-0.9305648395721926,-0.6197216917634238,-0.7981270267558191,0.07794670102628835,-0.89411831484411,-0.6754551945298168,-0.8089523971942062,0.4337899738992179,-0.5949766525589381,-0.4111764559741505,-0.5281957997512091,-0.5949016052405081,undefined,1496199785265
903d185fccf839df,-0.5129066598460922,-0.6109729446600436,2.2919697978314466,2.37604971471745,-0.6150653070623807,-1.9485028488214766,1.8869797251172953,-0.9410864819986408,-0.4106939205744689,0.2570934946183498,-0.0675163150678026,-0.019437656048403546,-1.0437137923351159,-0.6604583984289131,-0.7844427986342916,0.05572005889303579,-0.9139129496124423,-0.6683369654931549,-0.7742412183554889,0.4629392285846618,-0.5754071506168418,-0.42753330708436005,-0.5637741670797446,-0.6146523073548898,undefined,1496199786771
903d185fccf839df,-0.005625309623390587,-0.6168430654132652,2.0259189082190776,2.1246792054617245,-0.46700269884779627,-1.9681919086141022,1.9477992621000388,-0.5426391261594334,-0.4103965079364412,0.2555473313852815,-0.03205770139409773,-0.047220428838495136,-0.7782489416221035,-0.6697167258417629,-0.7876007110233834,0.12846197665009035,-0.880845121195719,-0.6265775353273656,-0.7782294004573219,0.5800598047568157,-0.5363025557004084,-0.45057077031383547,-0.48756848752012627,-0.6449839972665382,undefined,1496199788272
903d185fccf839df,0.1302041316233921,-0.5634246859702228,2.39468966555584,2.370989624776168,-0.42922333664228685,-1.9402759758804438,1.8647473572079365,-1.0460767213591082,-0.41263596411291376,0.3492352675888835,-0.03853361333339889,0.04311364474266778,-0.7477857620320856,-0.6697166999402139,-0.802337561883474,0.14058564845274713,-0.9171020736860015,-0.588446883594015,-0.7833510649424468,0.6016946193972406,-0.5189955195657078,-0.46250760858963763,-0.5111650428073784,-0.6807670584324576,undefined,1496199789800
903d185fccf839df,-0.10264637852013218,-0.6092118704376871,2.0775979110212752,2.123966279587051,-0.542972863969695,-1.957719648427834,1.8781225460042144,-1.0141669799176471,-0.399490508078783,0.1220179515024526,-0.05175014578920319,-0.01904957687494991,-0.45185773172905525,-0.6808267420485768,-0.8328639010666858,0.1325032100058831,-0.9321720230672507,-0.6282621012799848,-0.8045444051184873,0.5837246347864943,-0.5452501708759916,-0.4867069449582441,-0.4984821719067379,-0.6888033035304716,undefined,1496199791260
903d185fccf839df,-0.18580721091848706,-0.6103858858199337,1.91171484588719,2.2089625786945324,-0.5246540322007908,-1.9454072902909987,1.876323747864819,-0.9887256727681072,-0.35987997189447396,0.6157727440183867,-0.09639039942835259,0.09805876551856071,-0.678155637254902,-0.6354608522505009,-0.8433902388858229,0.22949238657408663,-0.91291753277878,-0.573779787581905,-0.8244363384408806,0.758851156247191,-0.4933786449656103,-0.4932186430190035,-0.44995144665049935,-0.6978657296175713,undefined,1496199792768
903d185fccf839df,0.09278173806615703,-0.60686385428719,1.6973432132139685,1.765546836735396,-0.44719243864169744,-1.9467163226757127,1.9707337770589735,-0.33864080459238133,-0.180306943296612,0.1579229094172537,0.06510380414840032,0.036900722425814415,-0.7390819964349377,-0.6104633578751868,-0.8086533572127225,0.2092861632656797,-0.8735015014848515,-0.5492332973844972,-0.7944759945238654,0.7973780712905982,-0.47984338302741775,-0.44649109763246336,-0.459318247450518,-0.6222774433928102,undefined,1496199794230
903d185fccf839df,0.3949330166366981,-0.5675337763430763,2.291331914088394,2.294993064592242,-0.20379170357128568,-1.9331415159246472,2.0428535763824374,0.23610611391354525,-0.2652268782550936,0.27658828069618435,0.035549612090666934,0.0881708541726871,-0.4823209113190731,-0.5789849850979345,-0.8181270354821276,0.3022343043311412,-0.9033395702518079,-0.5141804526518428,-0.7861287995027791,0.7815946647216168,-0.4658983026837011,-0.44213668552779184,-0.5184867475049922,-0.6412636580841187,undefined,1496199795758
903d185fccf839df,0.13713419811447083,-0.4929828131256754,2.203286167960657,2.225522812601582,-0.2439676386081704,-1.9146590029071695,1.992153547744566,-0.11430704701450765,-0.3846397403491945,0.6300785841571978,-0.09773336089622114,0.08652759091484173,-0.6476924576648841,-0.5567649785858557,-0.7886533043130113,0.2193893879787693,-0.8262518878169011,-0.5159156793135716,-0.783518988599233,0.6247922943247495,-0.49804816913711675,-0.41611865606410436,-0.5054355739785649,-0.5892227271745994,undefined,1496199797247
903d185fccf839df,0.17732865277354712,-0.5340738776081687,1.6150396914584533,1.8360460585544733,-0.3020715429609436,-1.939209183671743,1.962008087595313,-0.33900595433910113,-0.4143549303339845,0.32807017162157615,0.040755465382625373,0.043879332089194485,-0.9914911987522282,-0.5410258375249406,-0.827600743200468,0.25373967364995714,-0.8441201880699234,-0.5338632392702406,-0.7705958776254274,0.6965952480793964,-0.47792255411517093,-0.4408382776854008,-0.5038918857515511,-0.6083423184439027,undefined,1496199798756
903d185fccf839df,0.26187549847011776,-0.6632173087208394,1.2979476827869396,1.2997369848198872,-0.29924297522509097,-1.9683246741930625,1.9069872892478668,-0.7320133176329573,-0.529699556656716,0.36951600534167744,0.021320572544157982,-0.08558449510691425,-0.9610280191622104,-0.5438033124374013,-0.8233902007105793,0.3446669436550284,-0.8579048564112631,-0.5049850150050735,-0.8131924627014178,0.5895914474960463,-0.48550512350626596,-0.44950009434936977,-0.47603644924986427,-0.611001855687297,undefined,1496199800258
903d185fccf839df,0.46977780375116823,-0.5980585708593846,1.2794454963211184,1.2379880134849477,-0.3856222622310036,-1.94936000761145,1.912943793569264,-0.717910161112528,-0.583190854211924,0.6490285764583483,0.10294119719674347,-0.05721820020426197,-0.7260263480392157,-0.5521357760271072,-0.800232279595179,0.36891431552506354,-0.7718982945579217,-0.509671392025227,-0.7978974351220823,0.7494735054743922,-0.45226828006520786,-0.4582092079044089,-0.45948616493684835,-0.553601706057876,undefined,1496199801803
903d185fccf839df,0.41572304358288575,-0.592775421262296,1.526994199467666,1.669702550986229,-0.3761902770964803,-1.92868102284057,2.0014525437909967,-0.11398260505305866,-0.5723893063861701,1.1780895161233786,0.004744171787578529,-0.08019529360489133,-0.8000083556149733,-0.5299158342689012,-0.8476007887379453,0.2981929579164623,-0.7362782459306217,-0.5055043167907962,-0.8107435804911337,0.8071406842630768,-0.44539080184309876,-0.4550270576390026,-0.4035508347991308,-0.5149586202300894,undefined,1496199803252
903d185fccf839df,-0.03057365250750333,-0.5047231277020994,1.835153802640846,1.920406884585025,-0.5835190766840327,-1.9010958436093417,1.971180848885402,-0.3531342798102453,-0.582871553435817,1.175294659395931,-0.05301264382521872,-0.05246945219960888,-0.6607481060606061,-0.6197216852880366,-0.848653426200976,0.684129104040823,-0.661027556812579,-0.5698153602721082,-0.8637374268907729,0.6604550939648869,-0.515635273136691,-0.45124744636963854,-0.3234994548658605,-0.4411864002927035,undefined,1496199804758
903d185fccf839df,0.029025057337412955,-0.5804481355297392,1.867054089080269,1.9277290362931587,-0.5162609074464497,-1.8884736969242697,1.9262348323210314,-0.6089170947893867,-0.5106125384314507,0.5003498102088753,-0.04218337496829878,-0.032650373845007956,-0.6607481060606061,-0.6086116561304481,-0.9023376791373543,0.5447071750898461,-0.7229309371038808,-0.6005681347916703,-0.8664521910096038,0.5809991149504805,-0.551712765125066,-0.4280193531498966,-0.4820202825375861,-0.4766446326420029,undefined,1496199806261
903d185fccf839df,0.19257476454851066,-0.6338665442007739,1.5665508697823676,1.5511975567840048,-0.41372279438414283,-1.9369032382450087,1.942799979527603,-0.48557475036711123,-0.4920420097669909,-0.10348026614495208,-0.09777266640962048,-0.06853641396309101,-0.8130640040106952,-0.6474967063789095,-0.9349693006088611,0.5568307903630598,-0.7215360434314005,-0.6286484078932628,-0.8586437496063353,0.5907925294179616,-0.5594804955988323,-0.4159046628418924,-0.5150206003250061,-0.4404763352085755,undefined,1496199807754
903d185fccf839df,-0.005625413139619791,-0.650302993376165,1.3764233938102395,1.4029455475539034,-0.5277911718320535,-1.9290187621574901,1.9027927406768512,-0.7832264261970113,-0.47991189465940176,0.008182272020366402,-0.11589341713786527,0.11820577175142688,-0.669451871657754,-0.6586067225857235,-0.9318114103064706,0.5851193390594447,-0.701334713188729,-0.6532582262650847,-0.8643811337116415,0.5038221130779228,-0.589389972442992,-0.4080092319774701,-0.56501095479439,-0.46216701768310103,undefined,1496199809258
903d185fccf839df,-0.2883722985026819,-0.3896681003863304,1.1811920854828413,1.2249473767136143,-0.7588799235303723,-1.8410760077221813,1.985602711506711,-0.21771249908239168,-0.6339060114222017,-0.28675124599610596,-0.005932356599489841,0.11492084606916121,-0.2516711229946524,-0.6215733611312262,-0.950758796294216,0.3446670001844715,-0.8051448518079973,-0.6256402591149817,-0.9047597287609953,0.5284442285042936,-0.5838799794064219,-0.39379440866406223,-0.636347372668374,-0.5114619851179154,undefined,1496199810770
903d185fccf839df,-0.45192200571377966,-0.23528302435443996,0.82837172550274,0.8529161534259769,-0.9455036034264783,-1.7471471083121421,1.895387221455877,-0.734889848618264,-0.7509347217267134,-0.5077454196982957,0.03362729447726031,0.09822181619772227,-0.6346368092691622,-0.6132408457384221,-0.9665482698928697,0.2719251106921385,-0.8394841485310316,-0.6395600702314391,-0.9307808680993876,0.4943058733074746,-0.598134175833901,-0.39139219054286734,-0.6645689706983009,-0.5464964009187645,undefined,1496199812269
903d185fccf839df,-0.5406269948212268,-0.32685733483338403,0.3281704868543747,0.35880642647295335,-0.9656738559650834,-1.6418422020704384,1.8978618618013194,-0.5907650141495874,-0.7305209855692606,-0.6369138787774796,0.054248874793568304,-0.11089497071146577,-0.9218610739750446,-0.62898005155321,-0.8886534510158267,0.24565723520309313,-0.8548291733502505,-0.6717567576867163,-0.8407389070066716,0.29945394581484786,-0.6079945932806147,-0.36881071863913883,-0.6876196805495565,-0.5315050971581141,undefined,1496199813825
903d185fccf839df,-0.5267668273336594,-0.307485898351363,0.18844599206138954,0.26278368028978105,-0.9800121206975058,-1.6802350505245822,1.8994055538156749,-0.6179661439366033,-0.602986454716284,-0.5300380589940498,0.042494484329947194,-0.10342513378348527,-0.11676275623885918,-0.64564503053572,-0.8486534041142746,0.19918324946452698,-0.8216283659674495,-0.6351080114574125,-0.8368066989697748,0.2911387842507177,-0.5904533447135615,-0.3619223288124509,-0.6878224470013651,-0.5046921210630756,undefined,1496199815264
903d185fccf839df,-0.5988395878516981,-0.3004417183739063,0.078708132478669,0.19611955531162928,-1.0607651321815734,-1.6726533765601306,1.9014015709782564,-0.6474332093637416,-0.46359866764580393,-0.47058048886392906,0.10517835478649065,-0.05800388116334754,-0.2168560606060606,-0.6567550467425339,-0.9518114263950128,-0.04531029450151744,-0.839686103082966,-0.6664117525309142,-0.8689500485103705,0.11330213524717817,-0.6514304880377917,-0.3570115040050549,-0.6735676036385678,-0.4645642846041413,undefined,1496199816774
903d185fccf839df,-0.6196298045776392,-0.336836706713417,0.01809697831508699,0.17032310488317104,-1.1622952485705367,-1.6575436034441255,1.9012937547976165,-0.6383627312846036,-0.4669897559689682,-0.3956977061242778,0.07507793560145515,0.003653575112791311,-0.5998217468805704,-0.6956400710894464,-0.9581272217242613,-0.10996974554698645,-0.7969402427645008,-0.678476010352616,-0.8713639486726674,-0.06145482245928547,-0.6903076943711743,-0.3628650958447258,-0.6359053758576253,-0.3993778284579942,undefined,1496199818232
903d185fccf839df,-0.6778424321135202,-0.3691224731541086,-0.0482561460837673,-0.0239001650993441,-1.242338540727327,-1.5748928787110108,1.8251345773539918,-1.0575990390577794,-0.45929269325176664,-0.4894125738592796,0.05686984649884253,0.07040988384266439,-0.9044535427807487,-0.7169342267291557,-0.965495632429839,-0.25747414120954887,-0.8686799050346466,-0.7173412852080071,-0.8770663496595005,-0.18923112305527964,-0.7372592688308212,-0.35621620022324835,-0.588972786292516,-0.3672250504292732,undefined,1496199819791
903d185fccf839df,-0.8455501964719702,-0.4636320047636214,-0.17203049765704106,-0.1639936753182531,-1.32213497840378,-1.5203607268970323,1.8580124200623216,-0.7808209510633827,-0.40284833208090165,-0.6030737682592839,0.05185565386827823,0.11122130469704641,-0.6128773952762924,-0.7447092607708033,-1.076022102227324,-0.4635761378838912,-0.9481740247990139,-0.7614502372400322,-0.9581523924018753,-0.25119447078901547,-0.8038768658890532,-0.3270529654530383,-0.5531984544600528,-0.4378282759840551,undefined,1496199821262
903d185fccf839df,-0.8441641831737544,-0.5164634130505309,-0.20520705985646823,-0.2772836557787095,-1.367988614901038,-1.5209686592493659,1.8205508367257488,-1.0466191100956417,-0.3503439406408271,-0.7475232678413481,0.06886219525748188,-0.04196172459067675,-0.5606548016934046,-0.8456251668490763,-1.1139168668405812,-0.5161119171267035,-1.07022117707331,-0.854905486843692,-1.0583607183465327,-0.36897717999419877,-0.9051181688027317,-0.4740378922579407,-0.6386055646398235,-0.5027160210776387,undefined,1496199822803
903d185fccf839df,-0.8594103639595374,-0.4630450482214846,-0.168202178650927,-0.2225052933425552,-1.3303121057188854,-1.5685713211261607,1.8413473403241312,-0.9767726496573407,-0.37407935168375667,-0.5067958303009552,0.04051836947519445,-0.07999551309010358,0.05296067290552586,-0.8604385023653331,-1.1086537236988308,-0.5201531787472177,-1.0961695411533372,-0.862131375850893,-1.054715379873667,-0.4118772483344376,-0.9097421382437983,-0.4504482822219797,-0.6576095768891795,-0.541461569241781,undefined,1496199824312
903d185fccf839df,-0.6224018829321853,-0.6174301096393789,-0.1624602084156547,-0.1603145494069463,-1.1295867301717337,-1.669539183381554,1.8718083795078264,-0.900658949984849,-0.4189416717528582,-0.3787532335758251,0.03873151847378129,-0.08526619017791477,0.23573975044563283,-0.8317376498282526,-1.0644431563940915,-0.38275180994469415,-1.0060470350517534,-0.8399344078851408,-1.0355231273453225,-0.17726653315133367,-0.8411284168997073,-0.438669759960443,-0.6213652767624884,-0.5391369330009328,undefined,1496199825752
903d185fccf839df,-0.1996673784060543,-0.6197781696318644,0.1756862841047395,0.24746630766679945,-0.831784941458339,-1.7385801666129217,1.9297430042830794,-0.5352890834402115,-0.35758920665167987,-0.18721229630362735,-0.04099908101453795,-0.13305346623620667,-0.5998217468805704,-0.7530417696882202,-1.0623378667435626,-0.30192751027021864,-0.9416562010928937,-0.7889605430520398,-1.0173664033344423,-0.12751415664134666,-0.8069772319799677,-0.4385837799370262,-0.5937423232927838,-0.519774210599906,undefined,1496199827254
903d185fccf839df,-0.030573548991274128,-0.6074507962153306,0.4449265924323719,0.5146615498945273,-0.5584836875437365,-1.7583530769937215,1.9185268909393467,-0.5576850740892607,-0.36908508843759075,-0.36549046730270224,-0.041323025331340975,0.07412603130096085,-0.6215811608734403,-0.6447192055648997,-0.9854956558806152,0.35477011183867496,-0.6387764244559122,-0.7090894579796588,-0.9590969624085282,0.3483440011274473,-0.6561165474573327,-0.39241719476650416,-0.49065032093238325,-0.3020646787528899,undefined,1496199828754
903d185fccf839df,-0.06660996375570316,-0.4061044472637484,0.48320724112401864,0.4032550552432903,-0.6491521079801084,-1.7543910414433947,1.8691443954080442,-0.8846869557145877,-0.34458748773601827,-0.3165776296471321,-0.07158340669480565,0.10839602386891486,-0.8261196524064172,-0.5567650109627921,-0.9297061059314742,0.5568308186277814,-0.5828818182071471,-0.67693710228175,-0.9517013332384757,0.45882784802575394,-0.6184190866250281,-0.40088767341718373,-0.484719022015574,-0.29158775745560933,undefined,1496199830361
903d185fccf839df,0.33810633338821333,-0.2429141608740333,0.3843154382687899,0.3782411873952678,-0.15809235521230328,-1.684942443640762,1.8172293870947505,-0.9123417823555942,-0.05650652568865486,-0.5881304241413293,-0.07030847371937102,-0.09145865551681427,-0.5301916221033868,-0.4132607094250657,-0.8854955312645011,1.2357550828699275,-0.45264498316244123,-0.6181420527822031,-0.8954819572816048,0.8906772466358654,-0.4905953851774196,-0.4203429129079097,-0.40746783279299376,-0.240048652898838,undefined,1496199831836
903d185fccf839df,0.46839165243131353,-0.2881143157293801,0.4417369195801588,0.39641153448159194,0.06338956085949407,-1.6978254636205288,1.824490273934116,-0.8215255144626896,0.07218585187615921,-0.6029507654439719,-0.0792047710410704,-0.05400833218823998,-0.30824559937611407,-0.38455986336337245,-0.8886534804647619,1.2559610800605623,-0.4444468337214674,-0.5210770258139497,-0.8617573293209173,1.0118630100095476,-0.4262515492999459,-0.40203455498006313,-0.3400496675021266,-0.09108586577776599,undefined,1496199833232
903d185fccf839df,-0.31609263347781646,-0.7600748710948454,-0.3417416276602909,-0.4819499362031127,0.3650999068855371,-1.7467464739170007,1.8393513011635925,-0.7952061968094564,0.0005011026294961267,-0.5571890639210492,0.00407804286768427,-0.05984690850785668,-0.4692652629233512,-0.483624109786924,-0.9012850600799082,0.23353361992987942,-0.48029281150136904,-0.7133705280439925,-0.9932204085402496,0.2330558387652561,-0.7150626241058592,-0.3294707709489674,-0.09025100446984267,-0.07866293878110563,undefined,1496199834726
903d185fccf839df,-0.7069486596179365,-1.0019253426007804,-0.6907336686342781,-0.7634009291429609,0.24635153213778255,-1.8773539068790759,1.8768865347099744,-0.8963205745565512,-0.19032928022588722,-0.683563677044827,0.1027382193461037,0.15867831462990206,-0.4605614973262032,-0.7271184179651495,-0.9286534979173788,0.06986429084414589,-0.6043728963946734,-0.8036023105892931,-1.0350893246121888,-0.08305884226855087,-0.8322819910223873,-0.3195668743622332,-0.18942727479513852,-0.18897775873102093,undefined,1496199836249
903d185fccf839df,-0.6861585981663392,-1.0001642976064162,-0.6798871036328874,-0.7272389396889211,0.004781651370277952,-1.8645500785492257,1.8781725080799363,-0.9366888198625131,-0.20402285376632887,-0.5942419886364927,0.06709227892308553,0.1801951118176203,-0.05583639705882352,-0.7484126189325698,-0.8781271205589234,0.23353359166515789,-0.5213429582904282,-0.8215878706995261,-0.9849921588758725,0.22892906114751965,-0.7478182265447072,-0.32472846788241255,-0.2798409631627009,0.1702319277639734,undefined,1496199840241
903d185fccf839df,-0.7055627843413597,-1.016013644099709,-0.6594707576640091,-0.7085670836432421,-0.19557344357265805,-1.8750759106603492,1.8667644091319004,-1.0815170027211476,-0.2145009546506457,-0.6385006888477659,0.062470790460454284,0.07832926290028877,0.005089962121212133,-0.7808167810660123,-0.8781271205589234,0.42953258974418285,-0.3796766769433935,-0.8403523831865952,-0.9873011062327276,0.4018536047747746,-0.7109861290222329,-0.3278601168736355,-0.3480785368009602,0.22025854271881262,undefined,1496199840751
903d185fccf839df,-0.14561285977563998,-1.0119045391128594,-0.5733396793132282,-0.6402991398478765,-0.513082621306064,-1.8874954137223794,1.876142294568393,-1.0887962725554907,-0.2708493100710718,-0.7494080535194374,0.05732863983428414,-0.024189645064456963,-0.09935522504456328,-0.8298859869358375,-0.9191797901990385,0.6720054746352486,-0.2647044479503582,-0.9122059612588811,-1.0204799831897169,0.6568672617896852,-0.6887763978269887,-0.39510207328706215,-0.4780147176861792,0.17502969612034724,undefined,1496199842250
903d185fccf839df,-0.10403239181834795,-0.8440181327381732,-0.17522042464620358,-0.1892091933656777,-0.7662856241877541,-1.887337026594473,1.8696650797334975,-1.1556480507724007,-0.2784972238378785,-0.6941332415490375,0.08793066357779784,0.002785777455417994,-0.32565313057041,-0.8372926644070467,-0.9233903216455764,1.6499796222347047,-0.10153550714962802,-0.918608568119541,-1.0295548473127272,0.8877823471308969,-0.6415200768149797,-0.4041712867459915,-0.4131321529170503,0.17780502276314922,undefined,1496199843750
903d185fccf839df,-0.08878614202174546,-0.6755446382953848,-0.20201713286730572,-0.20029467245260535,-0.9894338235378769,-1.973376794119568,1.9121364391920765,-0.9736187970698116,-0.35029132857898115,-0.6510566693229979,0.12266073006253574,-0.08840119189633215,-0.44315396613190733,-0.7734101068324967,-0.9149692513902667,1.5529904315341405,-0.1427650173913003,-0.893574441358634,-1.017898160275959,1.0778915550280816,-0.5851888389313903,-0.4118512345942941,-0.4793108491304681,0.1040096530402029,undefined,1496199845249
903d185fccf839df,-0.31609266798322616,-0.7929477548316316,-0.5363347981076869,-0.5357442828775104,-0.8543106232179514,-2.056546939781763,1.9299481100978515,-0.9003662335408652,-0.34252437120442547,-0.5705407810963349,0.12002369507050953,-0.02545712319306813,-0.6999150512477719,-0.8076659577599032,-0.9370745387237533,1.4479188165190728,-0.2527602324928789,-0.8802309288531958,-1.0064023998587688,1.1145090584339743,-0.5680006910380877,-0.42293882501554947,-0.5215754814285709,0.06011559309690422,undefined,1496199846747
903d185fccf839df,-0.38539336739942354,-0.9608341904343101,-0.6333129497337574,-0.6596964101657207,-0.7505485139425184,-2.0899645339157487,1.953024652775454,-0.7581900832750362,-0.3006693226252048,-0.6685650915048015,0.08957414816627954,0.03591716130368218,-0.6302849264705882,-0.8206276271460513,-0.9497061367444841,1.2983938324433357,-0.3389182828697159,-0.877944736058314,-1.0017005430536317,0.9976040594480086,-0.5872628129482221,-0.42905084029652624,-0.5385546189178843,0.011845917758666445,undefined,1496199848275
903d185fccf839df,-0.7526873054915147,-1.0248189056065202,-0.6888200174051199,-0.7384133407559192,-0.8719608812324575,-2.0933396021037245,1.9523777326461367,-0.8161117881762721,-0.26161770609655266,-0.6763485843402748,0.07464273947462613,0.03918712714301222,-0.5432472704991087,-0.8419218151626972,-1.09707475209778,-0.09380491105034074,-0.8913287838063159,-0.9236685898132606,-1.0875304219371384,-0.0216960389555864,-0.869120990033933,-0.44118578280763066,-0.5207052036437428,-0.48038986015713897,undefined,1496199849754
903d185fccf839df,-0.5725053696910085,-0.8874572499061539,-0.6926473198634363,-0.7131086919910927,-1.2179820144093454,-2.069422974055766,1.9571955535419718,-0.820853616546207,-0.22035762382741345,-0.6572591684756339,0.07697976682286149,-0.008109843723439527,-0.5084322081105169,-0.9567252253110193,-1.1444432465160788,-0.4514524802135952,-1.0023956779620977,-1.0331335207122407,-1.1262297830367323,-0.46700368113395774,-1.0237491585840557,-0.4543666678631875,-0.6364821481540601,-0.49718261203694697,undefined,1496199851260
903d185fccf839df,-0.9841516643151843,-0.836386923148599,-0.8228020336889339,-0.857967513862863,-1.6698635400377693,-2.045594856886976,1.9447434252376734,-0.9718184559200008,-0.31743532844507955,-0.6374238029254492,0.09430268215672861,0.06611899616313177,-0.7651932932263815,-1.0983778056778453,-1.163390636184941,-0.6959460383120004,-1.123488033660793,-1.0975838887219156,-1.15168418109784,-0.7639627030060606,-1.1221803216779884,-0.456714365602418,-0.6449570411235194,-0.4668749136346322,undefined,1496199852742
903d185fccf839df,-1.2017559764202206,-0.972574505010734,-0.891707201333898,-0.9423853839902834,-1.7830987774599378,-1.9518266731631622,1.9441727584098227,-0.9363978319827061,-0.27757020803112425,-0.6667829830841832,0.09902742696891152,-0.13565403173676538,-0.4823209113190731,-1.098377799202458,-1.1570748261312251,-0.8414298172966664,-1.0674303026069039,-1.1187485867242992,-1.171632088968417,-0.8891982594706888,-1.1637722978046716,-0.4510065697547935,-0.6315180991591574,-0.44780468087980285,undefined,1496199854255
903d185fccf839df,-1.2350203300828084,-1.1052400407261294,-0.9414717904960893,-0.9842567766380909,-1.740176563900456,-1.8838711190777357,1.9406488112933193,-0.9124366525567661,-0.27644411087018733,-0.6784719964511506,0.09400207424424877,-0.12224038083976711,-0.5084322081105169,-1.1437436679555253,-1.2633907497577044,-1.138459154637884,-1.266218499852643,-1.1740035201046877,-1.2397530397983216,-1.1191740433687367,-1.2584746669257039,-0.46600860752197387,-0.6578514166854824,-0.4994892148419414,undefined,1496199855748
903d185fccf839df,-1.131069211947693,-1.0976088457505513,-0.8834126795786171,-0.9462083254597008,-1.6287413221656823,-1.871596028623418,1.9344319496201297,-0.9335555287366711,-0.2771426672025228,-0.6638341840466166,0.093680601773578,-0.03776029566392692,-0.7303782308377896,-1.1539278397653572,-1.307601330866632,-1.2071598319729653,-1.3551657580582435,-1.1868087324972074,-1.262198809292565,-1.2305509993625012,-1.2957283159742634,-0.4660106095068016,-0.6627055794626526,-0.5120937759840246,undefined,1496199857247
903d185fccf839df,-1.118595126769161,-1.0823463973434104,-0.9051053013074997,-0.9615171236458725,-1.5071438109566935,-1.8806544408744499,1.9323859614778915,-0.9448131976615619,-0.2860820479107308,-0.6587299601253945,0.09280532687564651,-0.027392894919781283,-0.9001016599821747,-1.1742961850038678,-1.3307592510617532,-1.2394895504295194,-1.3825954353887566,-1.2081190879660946,-1.296287271853151,-1.2797798296696759,-1.3268074341731302,-0.47452489544478665,-0.6715405497167688,-0.5273924643057627,undefined,1496199858744
903d185fccf839df,-1.0534523982367914,-1.0077954925819943,-0.826630352695048,-0.8789523069157865,-1.3530537838014423,-1.9242018964035963,1.9384792239595725,-0.9166295925126623,-0.3031082592475603,-0.6512504445287485,0.09025390074236371,-0.062144282477015214,-0.8696384803921569,-1.1613345107611792,-1.3202329261265253,-1.2253452972798682,-1.3764751332135619,-1.1542130709467378,-1.2816219560782407,-1.2619792266395327,-1.2909400034428038,-0.4590250329608528,-0.657613102973672,-0.5215520436600378,undefined,1496199860257
903d185fccf839df,-0.8372341166826756,-0.8516493277137511,-0.766019198531466,-0.8299200055663524,-1.0288383259574856,-1.879920729552707,1.9288593903192939,-0.8648500676046115,-0.20347666593815367,-0.672429874312684,0.07614666798990724,-0.035351858593543665,-0.7303782308377896,-1.040050275632864,-1.2781276116611457,-1.039449382590325,-1.1140825171696545,-1.0925555312372097,-1.237423101654047,-0.9929683834139875,-1.1946873910296445,-0.45466542050888925,-0.6217564743253363,-0.44297287743021024,undefined,1496199861752
903d185fccf839df,-0.7249669015055608,-0.7952958294381133,-0.6569192226917983,-0.7278319952156603,-0.9389310494105617,-1.8349221563286813,1.9347659236610342,-0.759715111451415,-0.22756957633147387,-0.674839589421434,0.07529915099659198,-0.053626900598790446,-0.9044535427807487,-0.9595027261250292,-1.224443340319183,-0.8575946447271318,-1.0467497246377966,-1.0671540941471904,-1.2114789269477961,-0.8875660244553171,-1.152505420970556,-0.45827056834934254,-0.6317209341370237,-0.4319492891747576,undefined,1496199863281
903d185fccf839df,-0.7041767710431439,-0.9755096092293333,-0.5848236197837727,-0.6252789297790602,-0.6852446177658021,-1.7613554656111852,1.909569747868993,-0.8104202290807583,-0.28015131429997203,-0.6700184125857611,0.07122541966451881,-0.011672703282278402,-0.7956564728163993,-0.9354310372943736,-1.1107589839004244,-0.09986673988548875,-0.7547471284008535,-1.0428292574214246,-1.156022203358132,-0.3495443417198244,-0.9992451543194509,-0.4648007849586706,-0.6639710253096407,-0.2936384841957085,undefined,1496199864742
903d185fccf839df,-0.5184507130389552,-0.9197430674958321,-0.5331448711185244,-0.577569300444242,-0.8390157881108083,-1.79183356030526,1.8982589595055257,-0.9477749641842547,-0.3130070732748858,-0.6439438533152779,0.0667374078227583,-0.01715631369152349,-0.9218610739750446,-0.9011751928423543,-1.0423378469739035,0.3870997808319664,-0.7375114541331791,-1.0031596986691746,-1.0978787048873055,-0.03871132204878292,-0.898212807744856,-0.46074211011058447,-0.698791281330131,-0.2676410599550438,undefined,1496199866249
903d185fccf839df,-0.712492781821619,-0.9561380558353428,-0.5101764819035364,-0.5615026499939545,-0.5503682703498037,-1.8066079247932474,1.8977908565840405,-0.9142182446225507,-0.29521575107772235,-0.6468949643935107,0.06000178088904761,0.007226316273783129,-0.847879066399287,-0.9363568655028874,-1.0507589098669794,0.24767782361626797,-0.8582243644923142,-1.0015637970617917,-1.0785255258678412,0.15684893567101063,-0.8508727584653789,-0.4743723407189632,-0.7230548284968861,-0.3197399545660238,undefined,1496199867757
903d185fccf839df,-0.5267669308498887,-0.9508549208522503,-0.577805882062395,-0.6234363307703897,-0.6513326745439489,-1.8363988939484068,1.8965075208739552,-0.9670588240882154,-0.32891736408777705,-0.6052601869057829,0.06322377199618585,-0.05806696296374918,-0.7129706996434938,-0.9946844246871115,-1.0791799962108313,0.5750162839346843,-0.6552432091475038,-1.0502704672611065,-1.0861240625839028,0.26958095285816386,-0.847556849869532,-0.4599652845778054,-0.6765786758968648,-0.3248553395954835,undefined,1496199869245
903d185fccf839df,-0.6986326488394614,-0.9843148342011541,-0.6645748441562287,-0.7055011301440345,-0.5588128337459825,-1.8507679698729105,1.909661797799112,-0.8857856427804769,-0.32647551394746865,-0.6137457417848197,0.07437103439092571,0.013438857868550058,-0.9088054255793226,-1.0057944214677637,-1.0886537002480547,0.7225207361266898,-0.5934064620814906,-1.0392638114100228,-1.099369025799784,0.42675288275517476,-0.8092925416137672,-0.46151404617970854,-0.6596155147387023,-0.3724211525481007,undefined,1496199870749
903d185fccf839df,-0.48934443377642445,-0.9467458158654006,-0.6779734524037292,-0.6999715077353015,-0.6202081574060901,-1.8276339672350521,1.9160864218023437,-0.8032283771853028,-0.35850815008685044,-0.6497539600595488,0.054396111500723945,0.0465405353572147,-0.8217677696078431,-1.017830269120785,-1.112864251464252,0.0294521551392689,-0.8894730867685356,-1.0362239981292845,-1.1142932243662318,0.05306340982245208,-0.9060683524627495,-0.4569475967875839,-0.6290755666868282,-0.44620599948056855,undefined,1496199872254
903d185fccf839df,-0.5974536780697115,-0.8140803093779977,-0.7353946795781486,-0.7615531674647523,-0.4454541627179871,-1.7562288093954717,1.9021379211856857,-0.7632942343001071,-0.348122544545485,-0.6790090882590871,0.051921050891568475,-0.06899744503371391,-0.6999150512477719,-1.0289402659014373,-1.188653817501935,-0.3241541948005535,-1.0264664422324834,-1.060840150258674,-1.1621514108238744,-0.1489641956444352,-0.974128241965627,-0.4718437538476349,-0.6308865494288834,-0.4839607054752991,undefined,1496199873749
903d185fccf839df,-0.2578800059419354,-0.9578991592856917,-0.741136649813421,-0.8206647992148497,-0.41066793401754387,-1.7026609671597288,1.8827273213938405,-0.8121515212477695,-0.364914397345791,-0.6838753490512043,0.05542316754609896,0.1552769459938252,-0.3430606617647059,-1.0298661102984192,-1.117074779229673,0.017328511601333654,-0.9167299828537546,-1.0610428041075404,-1.1331146460404538,0.002772088596894997,-0.9339698104269701,-0.46439140969358544,-0.6136638941462155,-0.40201355566368635,undefined,1496199875256
903d185fccf839df,-0.2856002719062504,-0.9590731892819344,-0.7258243903367623,-0.7984908714109669,-0.4295319033743526,-1.7025864299535949,1.8882525316620686,-0.7995679133437086,-0.3417533678999743,-0.6390138136405972,0.07733393805455574,-0.010664054907078521,-0.33870877896613194,-1.0335694393209431,-1.1170747865919066,0.001163634707605631,-0.9117834314768508,-1.060941476698649,-1.1165671884761557,0.14517691184183132,-0.8977088652886125,-0.4637687386953404,-0.6186705233309961,-0.41795310947515796,undefined,1496199876780
903d185fccf839df,-0.37291924771548174,-0.9526159658466145,-0.6537287874287369,-0.6810085354455988,-0.38128169971719617,-1.7398402828874215,1.8969782331722291,-0.7790810050616309,-0.3257094400248805,-0.6372073408979634,0.07983418038700867,0.0494758869971103,-0.3038937165775401,-1.0039427520999613,-1.092864228013476,-0.2837420166985942,-1.0008293117014524,-1.0478892795027106,-1.097088066952667,0.002448724271542696,-0.9234046793029019,-0.45838516184852174,-0.6435438777873747,-0.4091621799274657,undefined,1496199878257
903d185fccf839df,-0.045819695271647407,-0.856932404240859,-0.4795514546763202,-0.5149245321461662,-0.14549237919892377,-1.6562299111222307,1.8582385653523246,-0.7643851647229313,-0.1935193371732953,-0.6393961211882359,0.04136136971440853,-0.041070947622388075,-0.5606548016934046,-0.9252468751976226,-1.0970747631411306,0.2840486977006306,-0.7087131950011585,-0.9873083414806989,-1.0609425422573715,0.5766567606985112,-0.7616527837948245,-0.4396612742304422,-0.5177553338824771,-0.21039974599308858,undefined,1496199879745
903d185fccf839df,-0.0402758491112428,-0.28576628496488693,-0.3513119169016773,-0.47496337302084163,0.2539218130961629,-1.5424815150556717,1.7953704334693585,-0.7958282213892327,-0.009090185947680457,-0.776318223635036,-0.046711121355306306,-0.11947372593686914,-0.8043602384135473,-0.8548835072127007,-1.0349694105005076,0.5265217663123863,-0.7442824856527057,-0.9317810909906631,-0.9943119120035069,0.8244485460048372,-0.6644194523769418,-0.45674397237322345,-0.5630654623826764,-0.2990646283391337,undefined,1496199881247
903d185fccf839df,-0.18996528531854406,-0.24467517664040514,-0.06612019466958634,-0.344810392697626,0.5723464254739742,-1.3557370882299582,1.6989880422497745,-0.825066697125472,0.10728256727538256,-0.4774178932332702,-0.09363578419007271,0.03812748431095743,-0.6302849264705882,-0.8234051538616103,-1.0128641489348391,0.7023146541418905,-0.7529834073298919,-0.8689139593377329,-0.9701869079783828,0.8077412302050893,-0.6421643340898396,-0.4636370431023118,-0.5115272123055388,-0.29991314264955726,undefined,1496199882746
903d185fccf839df,0.46839158342049403,-0.3004417183739063,0.1878078541813874,-0.2270720678965538,0.35650106623391736,-1.3595733450863159,1.7546978522472614,-0.543696470987406,0.05368514865975186,-0.7571304657297565,-0.053288699244195374,0.04996115305899995,-0.2734305369875223,-0.8308118119066578,-0.9265482450780189,0.6053253927795224,-0.5706767609823401,-0.7765606424156292,-0.8708391896859179,1.1017283517156515,-0.5131554249474689,-0.4726031944317834,-0.4527302094641968,-0.24409677367661453,undefined,1496199884245
903d185fccf839df,0.5667985966046319,-0.4354552263978101,0.1278353461717064,0.14488087543279443,0.05794841746962921,-1.4701959031907452,1.8213082012678865,-0.427586526602714,0.01432814360356105,-0.6266522397352324,-0.0008863360979395821,-0.005937270636694362,-0.33870877896613194,-0.6928625832262111,-0.6349689120360513,1.5671349178677443,-0.238738931615854,-0.6410926448824743,-0.6099560997051559,1.865799221114599,-0.2038870355414773,-0.1577450643112285,-0.17760800967423837,0.5457468461791947,undefined,1496199885754
903d185fccf839df,0.5113581336868213,-0.4483696148124653,0.06658579999117283,-0.024743212565153817,0.18644762421556152,-1.5342336776845968,1.8594167141614726,-0.2547615978397502,-0.3258827403420313,-1.0615024097880017,0.056724955398640996,0.0827282521376557,-0.7129706996434938,-0.3641915197437087,-0.578126754072815,1.7631338028878831,0.10524695722649946,-0.42333437386114203,-0.5155061502681283,1.844995918960762,-0.09472786953759349,-0.10459673374028124,0.3620908569232817,0.3564903661169938,undefined,1496199887242
903d185fccf839df,0.7054001334586656,-0.4084525949402109,-0.02656352435488474,-0.12354137487068005,0.5270893430126771,-1.5896276450545448,1.8293475141225786,-0.3837567967282762,-0.5550403286345066,-1.5499173930242727,0.1285016031395399,-0.10855140963347612,-0.8217677696078431,-0.17346981444939852,-0.5181267278938896,1.8318343742302587,0.08412703160080738,-0.36352605332891896,-0.4876238583434489,1.9886018201158455,-0.03198981473349555,-0.09456777182240693,0.32153413508338957,0.38692430760604146,undefined,1496199888747
903d185fccf839df,0.4933399608100165,-0.6632173379488318,0.09083046496616516,-0.04623337937931405,0.37853302068407546,-1.6970405126466135,1.8653574553749148,-0.4167384093827361,-0.6625726925751034,-1.354779509653767,0.133161441660551,0.07745867884959538,-0.7651932932263815,-0.17532145144026448,-0.4907582422018993,2.1652347976412507,0.10718483351939442,-0.368313758937274,-0.49518741071150807,2.461734449284662,0.07335908749270698,-0.059813248543262636,0.13184522586237035,0.20401569029466882,undefined,1496199890252
903d185fccf839df,0.2965258654309213,-0.5235076514839723,-0.01826951087350267,-0.083651326431571,-0.08014734896432772,-1.7975867821691218,1.8767839655660006,-0.7226388285078559,-0.46185619661978955,-1.0837580928708015,0.13691939682166349,0.06709102387296179,-0.4823209113190731,-0.2299456686511903,-0.5044424629611931,2.1409872279181648,0.0008532517921884369,-0.32713062531179093,-0.5213065063074989,2.248188805291184,0.05294819512267588,-0.06791951152657492,-0.053493209945911425,0.18180186485180314,undefined,1496199891786
903d185fccf839df,-0.18026312322021432,-0.42841113410433046,-0.130559413702333,-0.15832619008464208,-0.5535054124497096,-1.8508914203537665,1.934818522872872,-0.5927329628482614,-0.3613559748755067,-0.5936646603463537,0.07890727058601504,0.09052820930456687,-0.30824559937611407,-0.4836241065492304,-0.7897059565005095,2.072286769634675,-0.15777516818965562,-0.43952770844685696,-0.7167484251435461,2.1721204760764143,-0.06263093798294096,-0.15079240904873004,-0.1350155657300226,-0.32267832668785545,undefined,1496199893244
903d185fccf839df,-0.21214153259540583,-0.6767186829056236,-0.18160078689842746,-0.18455922706275674,-0.7422376682387855,-1.966577743989591,1.9981626486589972,-0.3519116408137236,-0.316892032655835,-0.5706856627524776,0.12799702059357249,0.06601558342506099,-0.8391753008021391,-0.5863916690445311,-0.927600867816582,1.9470089878406438,-0.130553060820332,-0.6407569958224062,-0.8945863657463067,1.50547557182386,-0.3398702149438587,-0.3445282283024112,-0.6226917823727715,-0.1987731863834613,undefined,1496199894747
903d185fccf839df,-0.4505359924155639,-0.42312799912123794,-0.48720809268854837,-0.6133513818608048,-1.2275579945011565,-1.8365363180116925,1.9611717964760906,-0.5621276906321699,-0.40331985067771997,-0.5370546377616976,0.01732658063593115,-0.08293647026672996,-0.5954698640819964,-0.6789750467792255,-0.9876009455311439,2.056121963402751,-0.1145317617399183,-0.7709623189424549,-0.9863845249927297,1.0754431854011601,-0.5094629149561973,-0.4142682692364679,-0.600885838688594,-0.18786464444757153,undefined,1496199896245
903d185fccf839df,-0.6930885956465984,-0.8487142527231443,-0.7322042443150873,-0.8189367256831759,-1.4710821588082572,-1.7889103644974604,1.9269448776849332,-0.7961446858167908,-0.33249849918037927,-0.5810002366732258,0.02263998580078744,-0.04151159494566596,-0.43880208333333337,-0.8243309723570432,-1.0939168581142726,0.053699470479860935,-0.49416983619383303,-0.8763171699927677,-1.0643919700807443,0.21577878199177397,-0.7699082053775484,-0.4152421761278322,-0.5913262909830573,-0.2714571228186444,undefined,1496199897737
903d185fccf839df,-1.0049418982938303,-0.8393219542972173,-0.8106797012014377,-0.8772444723787999,-1.6101962084828227,-1.699584040970086,1.8820120169467724,-1.031499079305837,-0.2387021207800455,-0.6351107450398614,0.05783260223873698,-0.10796197864314153,-0.5345435049019608,-0.9891294165837046,-1.1339169068563832,0.07794672929100989,-0.7475568951674455,-0.9905191435984735,-1.1376135953791036,0.24953217323881313,-0.8393829163246568,-0.4559815592126651,-0.5387881561641228,-0.2649614377083474,undefined,1496199899253
903d185fccf839df,-1.0978048927905149,-0.918569095955574,-0.8936213608369551,-0.9519491419372866,-1.6687835397101733,-1.7091315941409384,1.8980722481734549,-0.9716435547093425,-0.27068559951542787,-0.6640396924225462,0.08277279210057392,0.0015608929952765107,-0.7303782308377896,-1.0567152934676975,-1.2139170061811628,-0.6353278206223241,-1.0507088186629276,-1.0501121434919987,-1.2164466632085384,-0.6054357081462138,-1.0839090714365514,-0.4631639410825356,-0.6360743264574354,-0.5001322490857674,undefined,1496199900750
903d185fccf839df,-1.0492943928475538,-1.0136655256512388,-0.8617205661236333,-0.9345561498973515,-1.5314694850428252,-1.6645895525193941,1.8790350794259252,-1.0243267068328106,-0.3039171258693739,-0.6690961781334964,0.08648911725911794,-0.04955922163507573,-0.8348234180035651,-1.091896972603618,-1.228653868084604,-0.7121109010733676,-1.1594763818465441,-1.1255438355780476,-1.21394180474341,-0.6680919826402292,-1.1317382657176414,-0.4640682128015433,-0.6470251501521437,-0.5049297311023409,undefined,1496199902258
903d185fccf839df,-0.9827656510169686,-1.0817593823452891,-0.9574224419896996,-1.0069025784657115,-1.448535908787384,-1.6917741029730085,1.8935358230571215,-0.9669824304967986,-0.3029937031527789,-0.6890135294003188,0.09020360171673518,0.02540866881288407,-0.9479723707664884,-1.1159686533400397,-1.240232832323421,-0.7868733789788754,-1.1695123254166488,-1.1614516260904433,-1.2286560979925942,-0.7332736015950938,-1.1634769128319855,-0.46165970245339616,-0.6405363674948719,-0.4921475874034957,undefined,1496199903747
903d185fccf839df,-1.1657196134139063,-1.0776502773584393,-0.966992731231086,-1.0112729100235083,-1.2900641756319895,-1.753419747542938,1.9162494601893936,-0.8827336043929839,-0.2712491757821765,-0.693915195452258,0.08168742297361817,-0.025249440417178363,-0.9479723707664884,-1.1335594920985765,-1.2833907768895974,-0.8495122274788088,-1.212656413864167,-1.1678668978031015,-1.2415932013158044,-0.8320700273092221,-1.1915103349949172,-0.4610075536543593,-0.6451415019055278,-0.5057810382039127,undefined,1496199905248
903d185fccf839df,-1.1269111720530458,-0.9520290093044778,-0.9472142690052604,-0.98950795635417,-1.168466667303751,-1.8202409624155798,1.9138326639974108,-0.9241021185423729,-0.27701303733661553,-0.7094972452502554,0.06523223611459715,0.052578827261937806,-0.8957497771836007,-1.1048586419897661,-1.2307591319673146,-0.27363899690473575,-0.9330512666859865,-1.1264811108879549,-1.1953092974644577,-0.5370358139853769,-1.0984197256702268,-0.44887333653546685,-0.5699195917213312,-0.3924948284040879,undefined,1496199906776
903d185fccf839df,-0.6917025478429729,-0.5663597317328374,-0.680525495649839,-0.7877375273833152,-1.0621537053388235,-1.9345041216245547,1.9337928984745285,-0.8431496415422658,-0.18741997685900547,-0.7967425133590543,0.04761569579344976,-0.05017004226808349,-0.8130640040106952,-1.0437536078930814,-1.1949696128311835,0.30021362405762136,-0.6847756935973764,-1.1076532695122419,-1.1928184329819895,-0.09457688200674977,-0.9862871320112193,-0.45295376603449766,-0.5551837947066015,-0.37755869282881194,undefined,1496199908241
903d185fccf839df,-0.35351499252964175,-0.5129413522897949,-0.4674296304627229,-0.5422639388585428,-0.9136179531299665,-1.9115960539998225,1.9342872973356067,-0.750001670954066,-0.17379358115804414,-0.8650075074138069,0.042633423869428574,-0.0005603659508948849,-0.7869527072192514,-0.9863519206262351,-1.1086537218582724,0.7669739214666695,-0.5122679127357155,-1.0505997795848812,-1.1426792865027544,0.3731816906705993,-0.839047197880159,-0.4511040433230443,-0.566874168160321,-0.43006080314242323,undefined,1496199909771
903d185fccf839df,-0.2800561842079777,-0.37557963813344386,-0.2792163139936519,-0.3553072713299321,-1.0287457589192424,-1.824356728312867,1.9234656429886814,-0.7211949874557838,-0.27702436951453074,-0.98784328317763,0.014320956063368386,-0.025831283863869646,-0.6476924576648841,-0.8659935072310464,-1.0012851736526716,0.29415183761955566,-0.7911890939082658,-0.9538260673004846,-1.0448708666459778,0.7656418692350739,-0.6910298800027749,-0.4316933437964177,-0.6306000191032568,-0.48986793993393557,undefined,1496199911248
903d185fccf839df,-0.36044509352613024,-0.5540323729302997,-0.14331962993288191,-0.21007197431473826,-1.132744442853505,-1.6564511898939651,1.944367341868175,-0.40940509258285224,-0.3266922191295035,-0.8161130384668258,-0.015224259798469562,-0.023667221082125708,-0.7782489416221035,-0.83544098208847,-1.036022055325772,0.4456974101084678,-0.7515972809999484,-0.9213760645730014,-1.0403579235693503,0.6948706139370165,-0.6882752173725962,-0.4313154620604557,-0.6658618386108327,-0.5110909719255728,undefined,1496199912743
903d185fccf839df,-0.38262134080299204,-0.626235276155215,-0.2779405465075464,-0.4195208855297001,-1.025341194829934,-1.573670027803158,1.8986087196998644,-0.5702832119004125,-0.21113799755157364,-0.7977464269096329,-0.03521515991735785,-0.010214981204540698,-0.8348234180035651,-0.8706226676997777,-1.036022055325772,0.44165617675267504,-0.7973593265065795,-0.9309261430460852,-1.036929485793233,0.4126479074398787,-0.7554113418215163,-0.4328546585715938,-0.6495095766045312,-0.5038697923694484,undefined,1496199914251
903d185fccf839df,-0.30916253248132797,-0.6708485329244098,-0.41766504130053156,-0.48795048124332513,-0.9054922523695503,-1.424514864953013,1.8366636504039207,-0.6299259368776928,-0.2693862655803855,-0.5294233002562111,-0.016027557331814525,-0.012620052694493579,-0.9088054255793226,-0.8280343240434225,-0.8770744978203603,0.3426463835065751,-0.8576031635562543,-0.8997680603858567,-0.9713483776051814,0.20595457609909804,-0.7717026873313763,-0.43871001540223464,-0.5979020565967272,-0.5122706100179366,undefined,1496199915745
903d185fccf839df,-0.3396549285583037,-0.5070712315365734,-0.05974059482821074,-0.15129987992703944,-0.8818454316752767,-1.46695826077487,1.7671631332352045,-1.085815381241977,-0.26717118447670163,-0.6416048327882178,-0.036872024850498675,-0.008231827740832216,-0.9610280191622104,-0.7623000971010699,-0.9276008604543482,-0.09178433676952666,-0.8882022795873025,-0.8380345252802232,-0.983529824705302,0.08005689014202758,-0.7791931659644844,-0.4599636850367878,-0.539742488850525,-0.4616449687790429,undefined,1496199917246
903d185fccf839df,-0.30084648719744317,-0.11670579013797333,0.7007695631972509,0.6204574297647295,-0.9396407640886282,-1.6012319137805513,1.7845724520674544,-1.1165978156978826,-0.4340507685182769,-0.1795476521499533,-0.09516715727589081,0.004405377660767715,-0.9392686051693405,-0.6280541877300662,-0.9581272290864952,-0.13421706088757848,-0.8033905214534038,-0.7093997723361211,-0.9951025507272463,0.11976948135186997,-0.7118742961139167,-0.4469889077120065,-0.4499273263194817,-0.47534080024765213,undefined,1496199918760
903d185fccf839df,-0.32025070787787346,-0.42606301565586024,1.6743748239989804,1.5983276905316546,-1.0060452260094606,-1.8078191286247811,1.8829087856892452,-0.861426982806696,-0.34320721273840693,-0.3434864032369654,-0.18985946473659265,-0.01205462989196961,-0.9610280191622104,-0.5808366868426732,-0.9012850416743237,0.3648731104339923,-0.6108842471400028,-0.631042260304337,-0.9542481724404056,0.42382718567273603,-0.6072363431038105,-0.45763900919764383,-0.4272583389869051,-0.49382064337104115,undefined,1496199920292
903d185fccf839df,-0.36183114132975575,-0.5616636263618624,1.645026326668718,1.5127520050130283,-0.9830978392995183,-1.858009577150411,1.993286998275006,-0.24691760917960254,-0.32945804497212716,0.056460155724080203,0.023646294499279977,0.01014871934430664,-0.9436204879679144,-0.5650974680771108,-0.8865481981764668,0.8942723058062366,-0.7017136496568328,-0.534540864603605,-0.9377846768390761,0.7522452319146977,-0.49253334037450724,-0.4629661422605254,-0.49412460198939495,-0.5377045246747599,undefined,1496199921751
903d185fccf839df,-0.46439626341936036,-0.5569674771488989,1.590795026483461,1.6000611402066534,-1.0908919442306604,-1.8707621612960128,1.952314618410531,-0.5824976678648779,-0.21972183683259902,-0.13274611812498485,0.056594361559699755,0.00595277770203647,-0.9088054255793226,-0.46973660247918114,-0.866548167363457,0.9266020030642496,-0.7275851164978204,-0.45599969693387987,-0.9209223630116589,0.8722145212213794,-0.4326171216828035,-0.46015178562970127,-0.5323438168168353,-0.5289067538331851,undefined,1496199923252
903d185fccf839df,-0.365989181224403,-0.5781000755372536,1.546772407556542,1.5588530229268598,-0.9675767210300946,-1.8969032129361052,1.9098222152866335,-0.8749506631811945,-0.32287838531362195,0.34148110216609934,0.007486163243400483,-0.007380562113863451,-0.8957497771836007,-0.39474404164859156,-0.8339165458919502,0.6497788466343568,-0.7377581184430724,-0.4103645041468034,-0.905214521835003,0.769922647165874,-0.42995822285287794,-0.4683766654599181,-0.5279674849716454,-0.538871119550386,undefined,1496199924746
903d185fccf839df,-0.3923234338905023,-0.6467808595454483,1.7924066970630832,1.6531140213229911,-0.9451436147509241,-1.9080905492369828,1.8886023101880387,-1.0070404754261941,-0.35882576000280375,0.30174332037879986,-0.11874569521089738,-0.019873972607556648,-0.8304715352049912,-0.4428874193099029,-0.8170744274680322,0.49823316108655846,-0.7100992346836335,-0.46121170920388016,-0.8917036797629887,0.583201098411168,-0.48777987086313657,-0.4774078520439727,-0.5205886064407798,-0.5675493975586068,undefined,1496199926251
903d185fccf839df,-0.23986186757054034,-0.6215392146262286,1.106544439328706,1.1245114845304935,-0.7786181778376337,-1.913329007894099,1.9091779123905188,-0.8553050290750235,-0.39582643267917067,0.49421526547862055,-0.15739824085484663,0.0382766915802696,-0.7738970588235294,-0.4280740384659352,-0.8539165546182587,0.7002940374639941,-0.7182274893655117,-0.4818571059908178,-0.8966574220838903,0.8086189402223719,-0.4466880007625017,-0.4587422784420039,-0.5253651046608061,-0.5777108712384972,undefined,1496199927751
903d185fccf839df,-0.1359107666881297,-0.6326924849765387,0.22672664075303625,0.2749242418913633,-0.5317511588902227,-1.9531496809043567,1.8952083848688919,-0.947456477946914,-0.4056187621334677,0.01728481424335733,-0.0484004741533956,0.029941682055932926,-0.7956564728163993,-0.4058540578554055,-0.8433902462480567,0.8376953214723531,-0.635432394272275,-0.4789882817907294,-0.8862181799500349,1.233123283343237,-0.3564323885006458,-0.45896468727951334,-0.4432825393227889,-0.474107132375948,undefined,1496199929243
903d185fccf839df,-0.05413587857717112,-0.5076581880787101,-0.4246827790219093,-0.41254273089438553,-0.7633027730688645,-1.8805449647593058,1.912541445685827,-0.8485020059798778,-0.5402173591038105,-0.2910467971496584,0.06435194464005396,-0.06407436226547439,-0.8870460115864528,-0.5956499899819936,-0.9676008926314327,0.9690349250353522,-0.5267130206708405,-0.6147349293993561,-0.9422906217713074,1.2267175281259342,-0.4212958452022198,-0.43410442786004566,-0.4649568467625848,-0.4694923723273646,undefined,1496199930759
903d185fccf839df,-0.15947295825238778,-0.6626303229507104,-0.5695113603071141,-0.6072913066857347,-0.8902488504348202,-1.8772723843952885,1.9317626975332465,-0.7618034786482738,-0.5054780461193074,-0.5626838515250773,0.08127918438168284,-0.002920355190243621,-0.6607481060606061,-0.6882334000936243,-0.9770746150742405,1.003385267235983,-0.5373904214280176,-0.688355400075361,-0.9472023845543514,1.1817540697382947,-0.46601510350982417,-0.42640356193795664,-0.39407284484206573,-0.4409160395781212,undefined,1496199932246
903d185fccf839df,-0.7623892950627957,-0.5516843567798027,-0.6294846307276434,-0.7073023200908493,-1.1208027522828043,-1.9313200514624316,1.9277233068428246,-0.894261196584319,-0.3590506476062256,-0.6268906785963829,0.07482095116988371,-0.04647186369197622,-0.7303782308377896,-0.8030368167173338,-1.0128641415726054,1.1609926332291414,-0.591631537431505,-0.8270848657782824,-0.990232771445916,1.3511677652190328,-0.48996453690914193,-0.4144928667131585,-0.3268542157673327,-0.42376832913412055,undefined,1496199933783
903d185fccf839df,-0.8053558108237133,-0.7559657661079957,-0.5254887413801951,-0.562940959067143,-1.0421171677339456,-2.0219507492018773,1.9625918955840682,-0.7360494660226197,-0.3011896070490964,-0.6184889008222376,0.10767804640764506,-0.01560812526738707,-0.7477857620320856,-0.8465509982952839,-1.0570747162395786,0.7346442948704605,-0.762175675157415,-0.912421281271936,-1.0391544728937798,1.1673719210452722,-0.5760111661039853,-0.45791069348302443,-0.4281399742659499,-0.563941720464077,undefined,1496199935247
903d185fccf839df,-0.8566383373631059,-0.8222985266586952,-0.45722145747828374,-0.5083490589331147,-1.2243282855750628,-2.062740385783392,1.9600594027049907,-0.818089744367805,-0.29579400912721243,-0.6489909059094555,0.12567873828815007,0.08995193041263093,-0.9392686051693405,-0.9187660259349272,-1.1212853217195615,0.6942320743714189,-0.782261384963284,-0.9698420816889721,-1.0696745617053975,0.8984380730894406,-0.6595572798194972,-0.47536029373739896,-0.6327153688221443,-0.6741472652655677,undefined,1496199936755
903d185fccf839df,-0.7346690636038905,-0.8352128639243638,-0.45913510870744195,-0.5014404105945006,-1.4449564852777517,-2.05806094430027,1.9662631169321452,-0.802789574875519,-0.28509590546687164,-0.6864595939201802,0.09257382540075251,0.03430954613881383,-1.017602495543672,-0.9122852058114745,-1.111811621363455,0.6113872993426547,-0.806938467017627,-0.9683728392707271,-1.0714237645958444,0.8149784999821752,-0.6812422946553104,-0.4754937414004519,-0.6164309631284524,-0.661713732534928,undefined,1496199938247
903d185fccf839df,-0.6404200213035803,-0.850475268489516,-0.515280568395756,-0.5999693440384576,-1.3543497834847729,-2.0534606965926643,1.94131677823052,-0.9466337131218728,-0.23007878352070701,-0.7176736071750935,0.07224669090720638,-0.0674754996797705,-0.852230949197861,-0.9252468719599289,-1.1623379950407935,0.546727763503021,-0.808934331989155,-0.98847993544091,-1.0759157163773363,1.1281828740862068,-0.6140412381867663,-0.47191742145271925,-0.5994288254952544,-0.6317516328372328,undefined,1496199939781
903d185fccf839df,-0.43528989789330524,-0.5352478929904153,-0.5688734765640614,-0.6269814515553493,-1.150343269912175,-1.9121294492959737,1.9189844694093685,-0.8845053448155143,0.0027958340763484446,-0.7307417801012567,0.05791206324199682,-0.07272922829869242,-0.499728442513369,-0.8946943565304334,-1.0739168420257303,0.9367052277773392,-0.48962138164953967,-0.9319394147929911,-1.0030089467365066,1.9103161106104192,-0.40002797877683755,-0.38796499130468665,-0.46848525231105614,-0.15271405878864114,undefined,1496199941250
903d185fccf839df,-0.6528941409875222,-0.3896680857723342,-0.5829099685546145,-0.6430156713204341,-1.068592551938971,-1.81151563172425,1.9640909024137387,-0.48021797385793946,-0.1083475942731792,-0.7420544786004147,0.05570621717827925,-0.027583096553577355,-0.6172292780748664,-0.8845101976713761,-1.010758837197609,1.195342862370886,-0.3969846184352785,-0.9058920171433614,-0.9659468396695573,1.8185259780724568,-0.4107633835036677,-0.39561773955356166,-0.4780981458375277,-0.13965617698991276,undefined,1496199942744
903d185fccf839df,-0.8025837497218721,-0.5880793597333095,-0.6632995849440221,-0.6785129011218067,-1.2062254624483117,-1.6890116254862355,1.971030956373105,-0.31772594038162283,-0.13915347833455022,-0.6977506535899455,0.057794779589412905,-0.3194127663127841,-0.7042669340463459,-0.8909910048440541,-0.9633903722282454,1.680288660417739,-0.2062991809065974,-0.9114333428555428,-0.9301651483568653,1.6210409162873545,-0.45310278944159044,-0.3973480951250798,-0.43262928888453,-0.03456767666380954,undefined,1496199944248
903d185fccf839df,-0.7526872364806952,-0.5135283380599239,-0.7130641741062134,-0.735400266524868,-1.1509501264555537,-1.7046501368800602,1.975943432385761,-0.28975178454986733,-0.19638990077849244,-0.756230727658471,0.055679945210356026,-0.4831006851009354,1.5282489416221035,-0.8456251538983018,-0.8949692463450751,1.7166595062373802,-0.28177402354341685,-0.8727137248631582,-0.8961956322968789,1.5850855464260591,-0.4265264269650319,-0.39578134308231117,-0.512899727669742,-0.13038045555466485,undefined,1496199945737
903d185fccf839df,-0.8122858773147921,-0.593362494716402,-0.7175303768553802,-0.7116399769612323,-1.4733552991560979,-1.6955102017560912,1.9744523291080254,-0.3675981182944766,-0.29846511478713955,-0.7017297207881567,0.0774661072946827,-0.7748417386184212,3.9391920120320854,-0.8215534780184207,-0.8676007974642538,2.013689154490535,-0.1727740879762142,-0.8667100937697639,-0.8903672889772992,1.16828042581294,-0.5206183682633838,-0.38740623083105924,-0.46843970731652984,0.02988460977938661,undefined,1496199947247
903d185fccf839df,-0.8233739837005181,-0.6520640529845254,-0.7009418416187172,-0.6992841910020866,-1.4862947064425986,-1.684089941796183,1.9684511165564638,-0.3996507579090276,-0.29046400477872736,-0.7094147442320806,0.08138608538218767,-1.0215497329123289,3.6084489193404634,-0.8289601490142428,-0.8633902476121313,2.0783486055360036,-0.13741702291438074,-0.8600098393369366,-0.8886110896613504,1.121453754395466,-0.5288154024502622,-0.3895377371771253,-0.4665311123271198,0.05007457647859401,undefined,1496199948903
903d185fccf839df,-0.742985143393185,-0.5974715997032517,-0.6849916983990058,-0.7076011003433346,-1.3945771437119916,-1.6954216906467856,1.9431970861357444,-0.5588560513945204,-0.3238686083405533,-0.7343922703470162,0.08944015979173453,-0.9691361347726728,5.601611241087344,-0.816924294885834,-0.8454954990874165,1.8479992652563477,-0.21415504804715066,-0.8601618301734407,-0.8843850158184325,1.0400421730651654,-0.5448899658081371,-0.39706868977777143,-0.4214831269392698,0.020743461030919324,undefined,1496199950249
903d185fccf839df,-0.5142926731443079,-0.7741632895057433,-0.6499009766965216,-0.7053228923242911,-1.1859112095630149,-1.7725987026421366,1.8916686594553673,-0.9827579412814488,-0.37695972971634967,-0.7805710658347929,0.06816967419887104,-1.0158977357036154,5.466702874331551,-0.8845101588190524,-1.0118114857039904,0.0739055100675779,-0.7823950008305789,-0.9358911698205838,-1.0233136928548856,-0.11507221056677762,-0.8714892844426158,-0.4505580739435806,-0.5690529275815526,-0.3602491834274338,undefined,1496199951785
903d185fccf839df,-0.6140857686374811,-0.899784557559705,-0.7079600876139938,-0.7921627717136555,-0.9835401194089057,-1.7557629619759325,1.8353645180651836,-1.3386553778994825,-0.30445265204086075,-0.7751254958107715,0.07772053598299739,-1.0500122330446462,3.7825242312834226,-0.9021010242885618,-1.048653638622035,-0.20089707208150082,-0.800689749519531,-0.9791261765940454,-1.0708920068468757,-0.38151151371242586,-0.9588059144074939,-0.43117477518834646,-0.5328605286811567,-0.34332480769730056,undefined,1496199953396
903d185fccf839df,-1.0354342253599866,-0.9620082642725414,-0.7334805200750916,-0.7908961684266547,-0.7902924435861938,-1.7586675231523954,1.8146653177187166,-1.467964353728987,-0.33898909819752227,-0.7058664302973211,0.07862159143197893,-0.7555258707313897,3.9130807152406417,-1.0363469368972593,-1.1697064278330727,-0.5969362733306219,-1.0082365066641858,-1.0554444811492758,-1.1521459711907043,-0.6782703554975561,-1.0876961804165297,-0.44975291584063853,-0.5329325810310652,-0.44171689070176856,undefined,1496199954740
903d185fccf839df,-1.0659265869315526,-0.979618714216183,-0.7296522010689775,-0.8001583598996362,-0.956838450065085,-1.7927396348135802,1.8524530134451305,-1.284850550470126,-0.24602345544860924,-0.7103911024178783,0.05260616981539272,-0.5711426974636963,1.3324142156862746,-1.0178302626453979,-1.1023379136451148,0.5608720449173938,-0.6205711742996777,-1.0536142607808563,-1.136815958712831,0.3492063142609117,-0.8371808737544147,-0.46411738653994133,-0.42911165109684724,-0.2959125373124831,undefined,1496199956234
903d185fccf839df,-0.7970396620235993,-0.9350055159029729,-0.6039641982665456,-0.6284370724723157,-1.032602894098353,-1.8270423417521569,1.874235694913663,-1.1548632661359448,-0.24130287954486646,-0.742399020250174,0.06710587991251714,-0.1851906773946018,-0.6215811608734403,-0.9687610600132662,-1.0633905152499439,2.4582226684427226,0.20308486555200062,-1.0020197681871374,-1.1220946682429274,0.8673178067651096,-0.7011525839076513,-0.4353695636910363,-0.27600033625362974,-0.14035592877677736,undefined,1496199957853
903d185fccf839df,-0.6307178937106603,-0.6438458137828337,-0.11141934349345908,-0.11657857462615522,-1.1723443757294207,-1.8422406285796509,1.934534510383929,-0.7479769315099338,-0.2137500953271071,-0.9175621039024928,0.06534908131362809,0.04645779457056288,-0.4779690285204991,-0.7289700873329518,-1.0054956977369756,2.185440738302442,0.11404067429050947,-0.8270215356438886,-0.9882596697571437,1.897997347953029,-0.37071577986132015,-0.39975910205538345,-0.2007476100366727,-0.2123719899786129,undefined,1496199959249
903d185fccf839df,-0.6695263005661112,-0.28576628496488693,0.4238721085834915,0.3789549284340071,-1.1182621792647789,-1.7068629142004494,1.855098586301862,-1.0029055480936142,-0.34924318839482843,-0.8705180065832303,-0.06137315949046804,0.009716383569325335,-0.4300983177361854,-0.733599257514764,-0.9697061970064291,1.6782681850634502,-0.22250176115166323,-0.7298361808632984,-0.943445096049207,2.1709039980380322,-0.25503931760720394,-0.4442608836647056,-0.545796449346917,-0.392563238156371,undefined,1496199960828
903d185fccf839df,-0.8192159093004611,-0.34740294745160966,0.5712529872517554,0.573955466558436,-1.1568438260693488,-1.7532590289075107,1.9318021346337444,-0.5586254223926594,-0.4111869703249045,-0.8249475286698726,-0.12414724215995904,0.0774964090828422,-0.4126907865418895,-0.6215733481804516,-0.8897061032033249,1.2620231279473022,-0.4083688997708702,-0.5982692747695606,-0.9123232810372985,1.9314581772986175,-0.27088930299606195,-0.4416008721472833,-0.45065798575450877,-0.3176949754104531,undefined,1496199962366
903d185fccf839df,-0.30084638368121397,-0.539944071431371,0.7454303200041721,0.6236658500178237,-1.0174006312728185,-1.74230228680401,1.9580213013543386,-0.3513071381696856,-0.46089249819780503,-0.8426360876420136,-0.10289601966209522,-0.09951880783390019,-0.499728442513369,-0.6317575264656707,-0.9160219183022326,1.3367855775880886,-0.40806950369577477,-0.6395664015528734,-0.9320472907701932,1.4476852177492316,-0.394335475368609,-0.4234979147506512,-0.40778739173862055,-0.2817400594987744,undefined,1496199963734
903d185fccf839df,-0.06938205936295413,-0.6884589828680514,-0.03677220561322271,-0.03731047523090802,-0.6191281605233911,-1.8062515503289938,1.9654426130138785,-0.32563675585413,-0.4714198963738969,-0.6240080922772098,-0.11493499207083431,0.06712191116749897,-0.7303782308377896,-0.6539775588792986,-0.9107587641171315,1.1347246446812098,-0.4694272998255922,-0.6316248896831239,-0.9146602159740989,1.0936903574712085,-0.4638190053586614,-0.42185882830834853,-0.39392704265522027,-0.3540297027284873,undefined,1496199965303
903d185fccf839df,-0.041661724387819614,-0.636214648035248,-0.034219654093214084,-0.03511765053022365,-0.6077110367746819,-1.7616209978482147,1.9980127587655045,-0.010328252082037016,-0.41557336253017974,-0.8152588010765658,-0.1222140941068426,-0.039926845845806504,-0.7173225824420678,-0.6947142331678515,-0.9665482772551035,0.2779869607258276,-0.7882065969554786,-0.66418888674221,-0.9432561820331955,0.5838324334359333,-0.5927647084351604,-0.4569287829998445,-0.5245665864637606,-0.4011947720472625,undefined,1496199965735
903d185fccf839df,-0.07354009925760138,-0.4788943654867851,0.2764917381891264,-0.04172417804753233,-0.5957693425190214,-1.7248423101443005,1.9063850563982785,-0.5278544441495874,-0.48104038044180036,-0.6511298133662521,-0.21843582179383084,0.001954773587291553,-0.8957497771836007,-0.6632358992429229,-0.9570745842612307,0.16887419714913193,-0.8652824466582286,-0.6457346901120395,-0.9195369934242934,0.7092681707414235,-0.5546900411025573,-0.4653688568379959,-0.5442001845651385,-0.4429844843886829,undefined,1496199966969
903d185fccf839df,-0.06938199035213466,-0.39084211576857697,0.2599032029524634,-0.058220335556836894,-0.8106478372231143,-1.7098280348807948,1.9044863403925698,-0.553921467494037,-0.44139403280596434,-0.7455872879936126,-0.26857807261514133,0.06547172253774608,-0.9262129567736186,-0.6150925345323862,-0.9486535213681548,0.4396356166042217,-0.8233372291205383,-0.6352346696167304,-0.9273104506997737,0.7100226905834479,-0.5449112830363568,-0.45868464644909385,-0.5836810057932503,-0.4423854661965155,undefined,1496199969440
903d185fccf839df,-0.39648147378514953,-0.2887013599554939,0.779244765946652,0.5030202879898712,-1.1092107641204707,-1.6348614706291102,1.820532410817394,-1.0181071993968127,-0.33881324373849936,-0.7432961501127546,-0.37686273914769325,0.0017186773598496026,-0.673803754456328,-0.6493483822220992,-0.9023376717751205,0.2133274814156371,-0.8717243428598096,-0.6614720559144185,-0.9119244621138659,0.1849510967930718,-0.6706322242205381,-0.47048698730239935,-0.6343891188931096,-0.49069957355914007,undefined,1496199970949
903d185fccf839df,-0.4408338993280536,-0.36501336816725893,0.49915763848067946,0.5093809326514683,-1.1086964790324858,-1.7018736830972303,1.7986997677968999,-1.3227798850336152,-0.4485345588556878,-0.7183364987115348,-0.2589245122111689,0.06872315054043454,-0.8087121212121212,-0.7224892542587246,-0.8844429011637043,-0.1685674030882094,-0.8749218100686813,-0.6299023319982096,-0.8654026666131904,0.045040821495036874,-0.6706129400560981,-0.42929130788548353,-0.6269415274705575,-0.5002466710081224,undefined,1496199972454
903d185fccf839df,-0.4061836358834793,-0.4225409548951242,0.561044560130367,0.5590771694097075,-1.1420015661310698,-1.715874740322542,1.785577036990567,-1.461503141928615,-0.4338980129667456,-0.7751523990947261,-0.17874112524946187,0.07130344424223266,-0.8174158868092692,-0.6947142331678515,-0.9328640256827998,-0.08572248673583749,-0.8418669627447588,-0.6294906902550024,-0.8971611913965253,0.05249366808136631,-0.6799346081642307,-0.4126668861442068,-0.6326557959597058,-0.4871848517667911,undefined,1496199973947
903d185fccf839df,-0.33688283295105276,-0.3990603257422764,0.7703123604483183,0.7009979163044666,-1.003905795696071,-1.7788247579339227,1.8778227489331196,-0.9213880079092622,-0.4775127988292791,-0.5004436960740425,-0.17391050993916038,0.03319553607904964,-0.6476924576648841,-0.6641617501152923,-0.8854955239022673,-0.12007280067174685,-0.7844762427640211,-0.614937584023356,-0.9048926675008925,-0.04333085780971393,-0.6936515684920641,-0.36798139073991476,-0.6521858702421587,-0.4951689013658461,undefined,1496199975518
903d185fccf839df,-0.3285667186563485,-0.47713337894840563,0.6171897656817316,0.6292106173946208,-1.010653212745252,-1.8599987453911586,1.9497900133705617,-0.6043627292359995,-0.44146426750230305,-0.3861965943677809,-0.03506262907867561,0.0001957800395362936,-0.5475991532976827,-0.6928625832262111,-0.8349691539060456,0.2618220273026565,-0.6255402032615579,-0.6586158969815783,-0.8861831956999056,0.8765722741476542,-0.48777654015578864,-0.37953668162709014,-0.8728963568910868,-0.3248866348139452,undefined,1496199976951
903d185fccf839df,-0.5115206465478764,-0.4976789038826542,0.4245107547373925,0.34953172181320175,-1.2083443135455871,-1.8545692890592846,1.9540476636069217,-0.6268195310337487,-0.43887423123034336,-0.44157788344992693,0.038916730735993554,0.0036918399298703558,-0.8087121212121212,-0.6771233903621977,-0.8560218442687875,0.7548504051199812,-0.6522019927576569,-0.7057456636294093,-0.8948172617102981,1.231460244100014,-0.43302228158930417,-0.39895177129951853,-0.9083595496501217,-0.3200749801136776,undefined,1496199978461
903d185fccf839df,-0.7083347419269717,-0.4830035581576118,0.5776333495039794,0.5673276946239271,-1.2912984619272962,-1.855498656089349,1.971675247222719,-0.5409298179032602,-0.340889430350362,-0.5616525237443496,0.09018913560563688,-0.06196740240187687,-0.5650066844919787,-0.7002692412712586,-0.9012850416743237,0.734644323135182,-0.5924514995653856,-0.7219453341319911,-0.9396388324126235,1.2119504124271872,-0.4509111725199682,-0.4504223482211126,-0.944819432888517,-0.22961409875632918,undefined,1496199980013
903d185fccf839df,-0.731897037007459,-0.5188114730430164,1.2264904718958658,1.2213249501133403,-1.2896424669346835,-1.8040364425656958,1.8933517399572317,-0.9597021646882602,-0.30731212166793487,-0.7196872707460882,-0.048078879652928695,0.04984112176407856,-0.7086188168449198,-0.6761975524406029,-0.9076008149168707,0.7609121703595058,-0.5686550639046841,-0.7168409818325299,-0.9078663133835948,1.2289502982865457,-0.4402543669851769,-0.45368145467426946,-0.9121959590241197,-0.24181300455908242,undefined,1496199981459
903d185fccf839df,-0.5697333085891673,-0.5053100696302398,1.6839451132403669,1.6104322681874201,-1.1098587714780936,-1.8203061784240624,1.9216984234412855,-0.7445042578281598,-0.2766579878753308,-0.41182166975389806,-0.14010509959615328,-0.03999532867866627,-0.8261196524064172,-0.5160283107726901,-0.8949692242583738,0.18099784068706717,-0.7151881871399208,-0.6260392352864239,-0.9119804371085953,0.3359636516348238,-0.6142419865263024,-0.45657829278080053,-0.7449568420289775,-0.44551879734720506,undefined,1496199982953
903d185fccf839df,-0.4380619762478513,-0.5211595038075096,1.6571481508823154,1.5862871214051706,-0.9446190483810508,-1.8080636967289538,1.8482926455102502,-1.164527395600242,-0.3243860704859412,-0.30289181926068826,-0.24062815423376893,-0.033148874321702715,-0.7913045900178254,-0.5243607937885578,-0.8886534362913591,-0.04531035103096051,-0.7843606742897294,-0.5764522862038582,-0.9126801179882831,-0.01565984669824009,-0.6660604013244378,-0.4644880362209922,-0.648136391971769,-0.45070265497948464,undefined,1496199984462
903d185fccf839df,-0.2481778783490154,-0.5270296830167158,1.9538238135849508,1.8266184049384058,-0.8884179983584929,-1.8497011783627764,1.9498636394873696,-0.5431391982190112,-0.3323883571720588,0.041295158358073444,-0.2322497739298226,-0.021866706603089644,-0.8130640040106952,-0.5104733156200577,-0.8591797345711779,0.11431768816953718,-0.7879896786898999,-0.5172519291449947,-0.8258846782923527,0.0036498053318702365,-0.6071493662757639,-0.46190952678636016,-0.6283484364691203,-0.46736403081062544,undefined,1496199985965
903d185fccf839df,-0.35074303494402975,-0.4219538814410182,1.696066937453964,1.5710540593507514,-0.8721460208543882,-1.83732825896341,1.8935700089308662,-0.8737510670781131,-0.31838475315473935,-0.07950429794235606,-0.2509669167720525,0.014774685304613204,-0.8913978943850268,-0.5188057792097636,-0.8065480970111288,0.21736865824198678,-0.8061438308931004,-0.46683536477842735,-0.7551819046526804,0.19091029989259284,-0.5312706362387879,-0.4327733940688169,-0.5427064454556838,-0.4959326406713552,undefined,1496199987463
903d185fccf839df,-0.2856002374008407,-0.4583488990085212,1.345798874856922,1.228852157499825,-0.8528706255305393,-1.8795596959114513,1.8626277120469976,-1.1105871157390774,-0.3769134364457915,-0.28860582556935005,-0.21143807827885233,0.015843893032712553,-0.7782489416221035,-0.41511239821902984,-0.8244428308113761,0.12442063023541143,-0.7594652926609377,-0.3939368504844617,-0.7578127059032177,0.20141203559441825,-0.4927147239767388,-0.4632155153627349,-0.5207622034564443,-0.5183374473855282,undefined,1496199989108
903d185fccf839df,-0.5281528061264655,-0.44191244983313,1.3547307720813568,1.2568101628940096,-0.9485687512565758,-1.8719570591070798,1.9050385896922395,-0.8277454932417122,-0.3466860198570299,-0.6996674717845867,-0.2205346535954658,0.05387775845480582,-0.8609347147950089,-0.26234977574384094,-0.7602322547803283,-0.12411406229226116,-0.7166464700137143,-0.33079740040415734,-0.7409014128765156,0.171616044665527,-0.4600546866047477,-0.4929966772746641,-0.4927703381047254,-0.5548048676015399,undefined,1496199990495
903d185fccf839df,-0.5170646997407394,-0.5781000609232574,1.4842476021638018,1.4939506669142266,-1.0093057931389593,-1.929389111805168,2.0396320723770804,-0.044048198237246136,-0.34697738992704064,-0.9163091256911121,-0.15542749431917519,0.0852831988622268,-0.8565828319964349,-0.2651273413117235,-0.7633901229960174,0.01934912827923004,-0.6554907406397866,-0.3514237978174698,-0.7297554931377346,0.15854276204495169,-0.4670596793036009,-0.499222263061054,-0.4558198993177045,-0.5768747827141057,undefined,1496199991961
903d185fccf839df,-0.43528991514601006,-0.3785147423520432,1.3668533587058025,1.3085315121909105,-1.150168410631888,-1.8345681126344218,2.0199216781329445,-0.08054086919088342,-0.31834087173534104,-0.7182371728856898,-0.2566268390176731,0.03925101379004679,-0.6999150512477719,-0.3651173835668526,-0.8707587024911119,-0.14027885439182458,-0.6624111774384485,-0.3740387419982261,-0.8233238458418102,0.07665382979432842,-0.5249563303965348,-0.4795389257303874,-0.4880393832898519,-0.5550609251751424,undefined,1496199993516
903d185fccf839df,-0.38955133828325134,-0.3245093625248755,1.1920381422103332,1.1317042085356872,-1.016063492360261,-1.7477596963939472,1.982681002477405,-0.1892414751013523,-0.3239562666625311,-0.7136882316310672,-0.2061205731146766,0.05304514340905351,-0.9653799019607844,-0.36419158449758143,-0.8760218603573298,-0.21302077214887913,-0.6715171026515525,-0.3944561527020444,-0.8000594496279221,0.009085452495329617,-0.5350626128574726,-0.44064677898468524,-0.5855923098731693,-0.5356511720902778,undefined,1496199994983
903d185fccf839df,-0.42558778755309007,-0.45013071826281414,0.7237376982752896,0.7337984895496762,-1.0926199349674652,-1.6858065911618092,1.9714648786584543,-0.21050520797127775,-0.36611834053971853,-0.6858162471389889,-0.17474182888993647,-0.02754165482011867,-0.9827874331550802,-0.500289124384064,-0.8097059873135193,0.039555238528750834,-0.6575419046434876,-0.5376630076747323,-0.7928807218458461,0.382913516000792,-0.5138032030567194,-0.43843725793199345,-0.7819495170987377,-0.414354382617463,undefined,1496199996510
903d185fccf839df,-0.37291924771548174,-0.4624579163113939,0.5572164952612022,0.40617281736741084,-1.0515285754408203,-1.6702449439450329,1.9119707757154116,-0.5859461496272461,-0.38676114816582957,-0.5975574275530429,-0.1028427497243182,-0.012204479755822856,-0.9827874331550802,-0.49103078402043965,-0.8191796582206906,0.10825589466529109,-0.6238614596378996,-0.5528810715031417,-0.7846244851214741,0.45833510241596964,-0.49536332503343034,-0.43324387739301573,-0.8522995467195446,-0.43124601564153736,undefined,1496199998024
903d185fccf839df,-0.4713263299104391,-0.4143227449214248,0.3543293113324241,0.3228868423368261,-1.1221604583183262,-1.6935443220042472,1.8884681944014798,-0.7916285393931907,-0.45054983189235437,-0.7643414398767737,-0.03996051769985586,-0.10435264207880293,-0.9784355503565063,-0.5993533546191474,-0.8770744683714251,0.027431552593733283,-0.6661075394600824,-0.6836816907918086,-0.8540678340756932,0.2897067281914844,-0.6066566953924216,-0.3807759447696787,-0.8144579915221686,-0.3676739229696138,undefined,1496199999455
903d185fccf839df,-0.4643961944085409,-0.4066915207178544,0.07041361072338807,0.07184540788243578,-1.1835043539353567,-1.7244486666547594,1.935318184483443,-0.5585931084496286,-0.4195746412789548,-0.621148335696651,-0.05903588029079346,-0.06385304239146679,-0.7347301136363636,-0.7752617632495244,-0.8591797419334117,0.07592616914255658,-0.6328634462494948,-0.7817346563757752,-0.8422502203214737,0.23314823723261105,-0.6532893212450035,-0.3573521249031881,-0.7394403648493605,-0.37479627502300533,undefined,1496200000961
