UUID,iqrAccX,iqrAccY,iqrAccZ,iqrAccXYZ,meanAccX,meanAccY,meanAccZ,meanAccXYZ, covarianceAccXY, covarianceAccXZ, covarianceAccYZ,pressureDerivative, pressureIQR, iqrGyroX, iqrGyroY, iqrGyroZ, iqrGyroMagnitude, meanGyroX, meanGyroY, meanGyroZ, meanGyroMagnitude, covarianceGyroXY, covarianceGyroXZ, covarianceGyroYZ, class, timestamp 
903d185fccf839df,-0.969598507431214,-0.6015806754621091,-0.4450991249907876,-0.42541817949851773,-1.7376668556480448,-1.6435495333511574,1.9128057584799136,-0.7412205774015964,-0.3380846460678403,-0.6527365491896764,0.03764203199524418,-0.4960317228218747,-0.7173225824420678,-1.0724544636678555,-1.1686537866889253,-0.887903774770511,-1.213737096108288,-1.1000706254659334,-1.2206867304060978,-0.9312360138801953,-1.1786971613974597,-0.4706825775769848,-0.6434880216412671,-0.5302907075735275,undefined,1491592872759
903d185fccf839df,-0.8933677199580569,-0.5965910187500849,0.03723730266091035,0.0045429692408069,-1.6037549875815666,-1.7716666489997526,1.8648016802780443,-1.1969950358147186,-0.4094058792957236,-0.7154552024506402,0.14318414016380113,-0.9741180546594993,1.8459363859180036,-0.8039626352127668,-1.1718116953969002,-0.8818419671339042,-1.142916296105018,-0.939323176662041,-1.1930118445532998,-0.852951418092513,-1.0802511267306198,-0.45475111496947634,-0.5906777035969372,-0.5040214871156041,undefined,1491592874102
903d185fccf839df,-0.6099277459955387,-0.5235075930279876,0.44556447617542466,0.4810530071264415,-1.21446396335408,-1.798577040115753,1.9871039120311977,-0.3117928078003265,-0.3906108867027828,-0.6175160866338787,0.07064801583011429,-0.5289466328536139,2.733720476827094,-0.5882433189861717,-1.011811500428458,-0.35446328951303085,-0.7381036971229474,-0.7328857373266021,-1.011300435973788,-0.43126033869376834,-0.8600894167064034,-0.3754359858093526,-0.3991262769976468,-0.30263755464735553,undefined,1491592875602
903d185fccf839df,-0.6889305557519512,-0.5581415656011264,0.47682738714569356,0.43194247031898114,-1.263988145609322,-1.8522443025938864,1.9782578987697268,-0.46340410443526814,-0.354766305800307,-0.6362229274099137,0.06963733305647915,-0.3361883017306051,1.0495418337789661,-0.6761975524406029,-1.0318115275603508,-0.5403592042025739,-0.931178772976328,-0.7814062803844378,-1.016017054356519,-0.5274830743167552,-0.9023276392077646,-0.39733120352715706,-0.47012056092569876,-0.35432190983291456,undefined,1491592877110
903d185fccf839df,-0.590523577073223,-0.6638043237189608,0.5361622655492713,0.5857418605522569,-1.177343222557613,-1.9342735252866283,1.936719887013676,-0.8179049764651075,-0.28841984432379836,-0.5775338862090433,0.10630946848387314,-0.28918493836450404,-0.3343568961675579,-0.71878591552312,-1.0739168346634966,-0.6252247372328422,-0.9656348553382619,-0.8035658809032967,-1.0440365120103594,-0.5613978486065136,-0.9255790495076373,-0.42038823705506045,-0.48459611097036676,-0.39492149240699415,undefined,1491592878611
903d185fccf839df,-0.8261459757915398,-0.6761316532935061,0.4334426519618273,0.36904953393775397,-1.4228936673228079,-1.9404599853596054,1.9188792751757788,-0.9992110326628607,-0.33877623202087737,-0.5024526772596001,0.05992363037205804,-0.16145639129044034,0.7100949754901962,-0.770632612493874,-1.0791799925297145,-0.7302964087773528,-1.0016799279635704,-0.8172548147375066,-1.0626356922057976,-0.5910149797218425,-0.9416924217895075,-0.4293318141562812,-0.5096859789033293,-0.42566917045433844,undefined,1491592880124
903d185fccf839df,-0.8025837497218721,-0.6391496499558741,0.469809141150417,0.4725622740493745,-1.3311452514201059,-1.9597507457610681,1.8716795165193032,-1.3012521820050227,-0.3675690079339764,-0.49115599261396814,0.041970607772539206,-0.2679053079140734,1.1365794897504458,-0.7261925929943293,-1.077074732328121,-0.6818018063608903,-0.9841259159555938,-0.763920086005055,-1.0410925882220365,-0.5739458885413267,-0.9059274766973325,-0.42444700368380095,-0.5222969740710404,-0.4388259818775331,undefined,1491592881603
903d185fccf839df,-0.6917025650956778,-0.6473678891575658,0.5731666384809136,0.6243514007885963,-1.2549590953806706,-1.9446316547622058,1.9042338803075813,-1.0568702788126714,-0.35296538024999274,-0.5296820082395709,0.03557438855906471,-0.1886988046917146,-0.6607481060606061,-0.7724842753862892,-1.0897063229866177,-0.6757399845919226,-1.0083696168978924,-0.7823109549535744,-1.0561987032534552,-0.575408739041312,-0.9189820705463181,-0.4335764790546698,-0.5477401404508778,-0.48850516630926366,undefined,1491592883152
903d185fccf839df,-0.4768703485978924,-0.6896330274782904,0.8047649442708004,0.8278816252065005,-1.055365147039889,-1.9503382913325087,1.911886611529357,-0.9721441310610569,-0.3631242340533867,-0.5838887604751043,0.03532575329761657,-0.033859765982932555,-0.9827874331550802,-0.810443468286994,-1.1033905547892622,-0.718172736974696,-1.050788611395975,-0.7950401715292024,-1.0735717845379036,-0.5892057470227726,-0.9295028159918582,-0.4441528035367232,-0.5753570772865737,-0.5175366873718559,undefined,1491592884646
903d185fccf839df,-0.5309249707445359,-0.6902200424764118,0.6567466901333825,0.6686155062101153,-1.0040806622422505,-1.9525953231755566,1.9423187265412774,-0.7661405451858019,-0.3227907928350482,-0.6934324435219391,0.005167974664573926,-0.05074095578903015,-0.8130640040106952,-0.7076759122670806,-1.1002326497624042,-0.6353278488870456,-0.9518357437056452,-0.7501712653423404,-1.062747718221791,-0.520759656233215,-0.8917795021863482,-0.43570996136709805,-0.5759997748114986,-0.5156670436635761,undefined,1491592886111
903d185fccf839df,-0.5697332395783478,-0.716048717007749,0.6369677196336582,0.7114836240618561,-1.0208257733959332,-1.9634845162544765,1.9899129536222573,-0.47644118907243965,-0.300619595706269,-0.7556779891044352,0.010016244294325653,0.0696022482754101,-0.7738970588235294,-0.6789750662053873,-1.0560220677331973,-0.6090598744714749,-0.9473352068435399,-0.7126992374149654,-1.0510910314602904,-0.5034210081011635,-0.8672702172812564,-0.4297266396854307,-0.5786498092659664,-0.510528235844519,undefined,1491592887617
903d185fccf839df,-0.4380619417424416,-0.7547917361117529,0.8883447417863198,0.9610225374096945,-0.9581550186238367,-1.95299362222106,1.926345286161548,-0.8559533337083804,-0.2503109989551592,-0.79319627489913,-0.03487256074468839,-0.048349619282378666,-0.504080325311943,-0.6465708814080894,-1.0244430910869549,-0.5039882877211289,-0.8826488963111763,-0.6827444137323149,-1.0294498951312259,-0.41605022863893376,-0.8293378191656823,-0.424531214186978,-0.552480574128164,-0.5122883310886565,undefined,1491592889101
903d185fccf839df,-0.3909373515814671,-0.7048954028154503,0.9834082256354344,1.0175145511770858,-0.9556144507971635,-1.9414009986287963,1.9263295073407658,-0.840780314793635,-0.2483057370456096,-0.5548050809194865,-0.0033520724217033187,-0.1041448525471304,-0.31694936497326204,-0.7058242493746655,-1.0328641613422647,-0.42720519313772465,-0.9521809149014525,-0.7045614039313336,-1.0323885555465036,-0.33701000859393887,-0.8268762735719557,-0.43712374269318793,-0.5516032165370205,-0.5213937739682789,undefined,1491592890617
903d185fccf839df,-0.4269738008513058,-0.7060694766536816,1.0318970473115203,1.0452003375354988,-0.842245501644102,-1.954589150325568,1.9206254599617918,-0.8610866883872378,-0.28026456911815334,-0.6976749927205561,0.010719284470240351,-0.13091055177363536,0.33583305481283426,-0.6947142461186261,-1.0307588900973204,-0.3463808651985276,-0.9124565600596649,-0.684808952435448,-1.027385835910372,-0.29047590652257255,-0.8059826120637873,-0.44835494841390644,-0.5580449659043345,-0.5116999186042894,undefined,1491592892114
903d185fccf839df,-0.5350829761337734,-0.7236799265973232,0.8947245957646448,0.8330150631754226,-0.9444750435491909,-1.9722913675984612,1.9097538435391441,-0.9854213337150282,-0.2519056971167106,-0.5351154235651235,0.050272930630072,-0.11099770504325138,-0.5780623328877006,-0.7169342267291557,-1.0476010085212382,-0.37871063311834446,-0.9625408599486885,-0.6887797082208328,-1.022194202288814,-0.3539175034440618,-0.8204312268685441,-0.4545422182037264,-0.5432433807384142,-0.526488207938943,undefined,1491592893605
903d185fccf839df,-0.4588520722048584,-0.7148747016255024,0.7690363388252635,0.8149617880713168,-0.9295916399785382,-1.9760344553463793,1.912483582676974,-0.9615272829825692,-0.20027899605337918,-0.621427363593433,0.031267695086011994,0.012270579793300753,-0.7521376448306596,-0.7474867745355878,-1.0497062760850657,-0.41508157786451094,-0.9662151805837659,-0.7057519974257332,-1.004982047642295,-0.39871158105883686,-0.8299185436972193,-0.4501406691328529,-0.5377674424049623,-0.5336372473202979,undefined,1491592895121
903d185fccf839df,-0.10126029621109697,-0.6602822337302325,0.7460682037472248,0.8069939153408578,-0.8795002994062395,-1.9251825056354657,1.9517492174747388,-0.6207392635278115,-0.2201971329565767,-0.35261263128412096,-0.007753219784625577,-0.012419805119613781,-0.7738970588235294,-0.7391542591427837,-1.0518115362866594,-0.31000999111416494,-1.00838526380877,-0.7220529948389067,-0.9977053643978385,-0.39358389903485663,-0.8315314134182675,-0.45782538188586436,-0.5580786985285315,-0.5576711245352381,undefined,1491592896684
903d185fccf839df,-0.11512049820407395,-0.6256483488410707,0.767760571339158,0.8259896895759354,-0.9629584447242557,-1.8890350425990488,1.915026601055037,-0.8506117199799454,-0.24628053646989256,-0.3227781789857943,-0.04137120810314239,0.043645307037088285,-0.6346368092691622,-0.7410059479367478,-1.0433904513068821,-0.4130609470542538,-1.0134103562659975,-0.7249154851097913,-0.977204708290609,-0.4376542480308676,-0.8356279868101677,-0.4583584454074633,-0.5857491040461326,-0.5318133818077183,undefined,1491592898152
903d185fccf839df,-0.10680441841477945,-0.5921884647201592,0.7773303523066455,0.845788825253323,-0.9303219252964853,-1.8670912798990655,1.9170226224077052,-0.8133085469866596,-0.233216245064219,-0.4307336147998901,-0.035635557498489755,0.10182347011209986,-0.42574643493761144,-0.7076759187424678,-1.0223378124797768,-0.3968960984252473,-1.001286064579967,-0.7425147356335569,-0.9757493717383674,-0.44604639974903365,-0.8417747845683533,-0.46687680496526157,-0.5813817375053548,-0.5148849382408065,undefined,1491592899655
903d185fccf839df,-0.11650644249147024,-0.6690874587020533,0.9036567471260291,0.8432082622280556,-0.7613176391438997,-1.9008140040548311,1.9157760913758497,-0.8246519249812824,-0.3287434122609553,-0.4377581344575284,0.009399057975908842,0.18633342003541764,-0.0950033422459893,-0.7011950662420787,-1.0360220332390706,-0.2008971286109439,-0.9611882493317729,-0.7740781266946751,-0.9667164889088111,-0.197099734372889,-0.7959361968099736,-0.46182189431667114,-0.5759039407615025,-0.5402315487152628,undefined,1491592901105
903d185fccf839df,-0.1899653198239538,-0.6238872746187142,0.5278679979309397,0.5507109590913957,-0.7959907214459482,-1.9095719436861283,1.9135828342396473,-0.8574591732092556,-0.28901661481807683,-0.5995194314977337,0.006069175003283092,0.10390206028929948,-0.6041736296791445,-0.6789750726807745,-0.9812851207529603,-0.14229951346680328,-0.95939928731089,-0.7539963629968218,-0.963365016529468,-0.10737299123613625,-0.7683122075721501,-0.44762575852605646,-0.5738262515536487,-0.5462414752434198,undefined,1491592902605
903d185fccf839df,-0.2911443941099329,-0.6227132446224714,0.5954976522267478,0.5568251207187617,-0.8678466013848012,-1.91350602845101,1.9134881686476086,-0.8756058154316466,-0.262252906370714,-0.594762424316289,0.017942500467326133,0.06763704805646807,-0.8304715352049912,-0.6678650564739605,-1.0086535843582491,-0.18069108902322692,-0.9740536435010834,-0.76626327471722,-0.9801643593159116,-0.13607569204023579,-0.7826236076273425,-0.45273220555057964,-0.5862454373888502,-0.5473957765082886,undefined,1491592905211
903d185fccf839df,-0.39786741807254583,-0.6503029641481728,0.623569873797006,0.6266325823647794,-0.9135768115821357,-1.9489663663825108,1.8717584053856036,-1.2028158035793233,-0.270185657048573,-0.4861327329457476,0.04765233201273859,0.06241488389560592,-0.8304715352049912,-0.7113792510026852,-1.023390464667275,-0.21504141709149707,-0.9718285455030653,-0.7739134707736328,-0.9970476640163874,-0.1312559785078497,-0.7916344876425494,-0.4620020106838834,-0.5741811859438014,-0.5293044582690746,undefined,1491592905612
903d185fccf839df,-0.47271230870324515,-0.6937421470791363,0.46598082214430286,0.41997056740522143,-1.174967226261654,-1.9857054573753472,1.8952478329683682,-1.144496614927081,-0.24097496575656982,-0.701116138602753,0.059392655695173914,-0.030272531982780338,-0.6302849264705882,-0.7595226027624474,-1.0149693870497314,-0.19079410175090503,-0.9915313220521493,-0.7891695310737236,-0.988728455657687,-0.0781621389859982,-0.7909969013694623,-0.4683621765182811,-0.5570707909886448,-0.530475771034364,undefined,1491592907110
903d185fccf839df,-0.4172717077637956,-0.8023399801875776,0.715443430656958,0.7377632262417955,-1.2300265630827256,-2.0180399562275553,1.9435021527652232,-0.8789062768731363,-0.2612959223437064,-0.6596364239022758,0.10446442017974732,0.010889636825860019,-0.6999150512477719,-0.754893452006797,-1.0076009689819199,-0.18069099009670156,-1.0041606188200138,-0.7639960798010639,-0.9924227726447269,-0.12697521180461593,-0.7899891449508111,-0.45666004816109845,-0.5806599282812791,-0.5332430490470885,undefined,1491592908633
903d185fccf839df,-0.40063951367979683,-0.8187764585909612,0.6254842874370125,0.5757459966274528,-1.1778163670660196,-2.0310021723757234,1.9852503251752354,-0.5968947332394957,-0.2533045442608479,-0.7651482342476817,0.07466738471380803,0.03523932149543761,-0.6476924576648841,-0.7650776173412417,-1.020232559640417,-0.3888136458460225,-1.086359060837229,-0.7534897274915571,-0.9978592950445776,-0.3793403327160272,-0.8432337334383777,-0.46006651036204027,-0.6570574742153251,-0.5127630014896835,undefined,1491592910102
903d185fccf839df,-0.5406269948212268,-0.6555861429732538,0.9578877931743366,0.9490588103638576,-1.218835725765148,-1.9737191925323987,2.005728619935712,-0.41656971553886224,-0.2725046564063329,-0.521863737004097,0.07800806577493312,-0.0061544639982163635,-0.7434338792335116,-0.791000962588925,-1.0402325978156606,-0.46761737123968394,-1.0820825180756695,-0.7768456229155954,-1.02646225733343,-0.49324263444956024,-0.8857833439872526,-0.4646238055156124,-0.646099420422533,-0.5194926265388762,undefined,1491592911603
903d185fccf839df,-0.6459641435072628,-0.7313111069589051,1.0121188392226441,1.0308450266406595,-1.1820232153222758,-1.9934455195785254,1.9361728784655416,-0.8922906504763479,-0.2809758678736726,-0.5859763164589319,0.12851092453007984,-0.05779042865150025,-0.6825075200534759,-0.7882234617749152,-1.060232606541969,-0.3908342766562797,-1.0940708281714877,-0.7747620842630235,-1.0317168626627213,-0.43896311363213397,-0.879003984466638,-0.4579807078688457,-0.648036575640686,-0.5200425599277243,undefined,1491592913096
903d185fccf839df,-0.6515081621947161,-0.5698818071075695,0.8047651984077498,0.8437503145996136,-1.2551236637265553,-1.9682384927510848,2.010112497595762,-0.37985649065861715,-0.31754983600060943,-0.6313498135249,0.0987907220883941,-0.004393227884337592,-0.5911179812834225,-0.7826684471961209,-1.068653662072811,-0.42316398804665345,-1.0876651384837555,-0.7981813112388422,-1.0312480760954186,-0.4368997210807438,-0.8906131534876401,-0.45224036097279807,-0.6267575663022918,-0.5086529931159974,undefined,1491592916362
903d185fccf839df,-0.6168578297393223,-0.6913940432446622,0.7594663037208265,0.7994676284576403,-1.1956311930323071,-2.0143993556023116,2.042443335946044,-0.19231689857266226,-0.3243967429309176,-0.680264399664999,0.14063915403950572,0.040751931848457906,-0.7390819964349377,-0.7974817956631524,-1.077074732328121,-0.427205235534807,-1.0862155089205268,-0.8201946234171632,-1.0264832479923915,-0.38232763101144596,-0.8914084183351529,-0.45958516554417433,-0.6117797239167193,-0.5059320046511725,undefined,1491592917600
903d185fccf839df,-0.6404200558089901,-0.6632173087208394,0.5470083222767631,0.5558939810552526,-1.2329785578106822,-1.9774715967175667,2.016963138237364,-0.3314119438772304,-0.32188385067951714,-0.710113732958884,0.03408319580956821,0.06074186673643024,-0.7608414104278075,-0.7724842818616764,-1.0581273389781416,-0.3605251112819985,-1.057872677639404,-0.8180540879669782,-1.0261543983338501,-0.3617861055130644,-0.8843885583889798,-0.4472935653045082,-0.6170832434819548,-0.5186883034761103,undefined,1491592919108
903d185fccf839df,-0.45746616242287186,-0.7277890461981691,0.463429287172092,0.5183603015656496,-1.1429684217207037,-1.9825353628909002,1.9789992713431697,-0.582194229433265,-0.30202219908361244,-0.5995584382162829,0.0738356432037922,0.09322359089611122,-0.852230949197861,-0.770632612493874,-1.048653638622035,-0.3968960701605258,-1.0683957609461794,-0.8233484296121178,-1.0049540619953414,-0.3580134877384175,-0.8791046705207936,-0.4501696556336255,-0.6074981607356769,-0.538851633750833,undefined,1491592920604
903d185fccf839df,-0.562803173087269,-0.6908070720885293,0.6127238170695141,0.6178952626846929,-1.217169435310954,-1.960025595604156,1.9660632592015603,-0.6660108198617402,-0.306504588554286,-0.4637278214191102,0.05923565124001319,0.09056626495595206,-0.673803754456328,-0.775261802101848,-1.0160220392372297,-0.4049784520779467,-1.0629387305228861,-0.7981749786107547,-1.0075078974820808,-0.3276939514009905,-0.8623049667635421,-0.4586818006207609,-0.5903424675932688,-0.5339187388951135,undefined,1491592922109
903d185fccf839df,-0.579435470687497,-0.6943291182352691,0.5355243818062185,0.5662455729861232,-1.2117385901874012,-1.9742432721265615,1.9571482107944953,-0.7453438918845787,-0.31496764868554256,-0.4467953000472217,0.10852327913164915,-0.027378770917099223,-0.7608414104278075,-0.7169342396799303,-0.9423377334011401,-0.39285486506945455,-1.0330829498695708,-0.7666812481749646,-0.9547729343633444,-0.29523402930219333,-0.8216736225875876,-0.46151690801300155,-0.5631323826002435,-0.5480429455797451,undefined,1491592923618
903d185fccf839df,-0.5461710997722043,-0.7536177207295063,0.6701447901069841,0.6625766868894614,-1.234336269431659,-1.9793047081618727,2.007869273669989,-0.4047687150435257,-0.29131015695800855,-0.4363383840815283,0.0620837207972243,-0.019945754941841157,-0.7913045900178254,-0.7206375654647604,-0.9223377173125978,-0.4150815637321502,-1.059326155100271,-0.7441486352075207,-0.9628822382856375,-0.2014882919443468,-0.7934923992639533,-0.46180931971810923,-0.5869894106887535,-0.5564622790283633,undefined,1491592925099
903d185fccf839df,-0.5822073592622896,-0.6555861283592576,0.7926428659202537,0.7980428589143569,-1.1693512363148157,-1.9321422724424366,1.9814002792866743,-0.5149715717712542,-0.27051539922922324,-0.32370605236245653,0.051881837406544375,0.025412362780310768,-0.7608414104278075,-0.6910109138584087,-0.9465482464420936,-0.409019713698461,-1.043745799920129,-0.7408491719502394,-0.9776105244714639,-0.18769128494563483,-0.7925885347947289,-0.4672238006436261,-0.572244311019519,-0.5608439026382044,undefined,1491592926611
903d185fccf839df,-0.562803173087269,-0.6338665295867777,0.6388821332736646,0.6252828114926419,-1.167931811903971,-1.9186303562275502,1.9081102074704304,-1.0025453129984327,-0.3034527454300578,-0.132237742912976,0.01912296895092142,0.01937760080546789,-0.7738970588235294,-0.6836042234364249,-0.9539166792343727,-0.27768022319434815,-1.020314288899808,-0.724339187312662,-0.971642244175835,-0.11445627549523714,-0.7698639230030391,-0.4668996960150343,-0.6200905797524633,-0.5526524654785303,undefined,1491592928115
903d185fccf839df,-0.5433989869122485,-0.6432587695567199,0.7658464118361009,0.7200637485173441,-1.1514335548505268,-1.926505515446538,1.8551090992305859,-1.3697792679055696,-0.279065182770044,-0.05065407569493461,0.09121047446908906,-0.02579136500498402,-0.7956564728163993,-0.6910108814814724,-0.9665482772551035,-0.2534328795890346,-0.9648112957120445,-0.692883456748066,-0.9507567639719872,-0.06116225384014234,-0.7366658250789508,-0.4364738453671915,-0.639628628105885,-0.544517033514121,undefined,1491592929606
903d185fccf839df,-0.4824143500326408,-0.6749576232972634,0.675886506205307,0.6580567522459174,-1.1976574769533035,-1.957607846977653,1.9677752586375896,-0.6676088044300151,-0.325357358653068,-0.13802256451805822,0.09914566956668833,0.004122354372130675,-0.7303782308377896,-0.7011950856682406,-1.0254957248688685,-0.1079491571338116,-0.949998838869579,-0.6909012460192955,-0.9952144997685609,-0.062270941319933444,-0.7477028816323766,-0.4439926981784295,-0.6494971655592212,-0.5280529882789609,undefined,1491592931152
903d185fccf839df,-0.6515081276893064,-0.7418774061530824,0.6108099117034065,0.5682059479697993,-1.2758904874155794,-1.9890758679927527,2.02153375970266,-0.3545690246670031,-0.29733811398771953,-0.34499656478090795,0.08635636772717356,-0.07836131989175786,-0.7956564728163993,-0.6326833773380401,-1.0118114820228734,-0.24535046940689212,-0.9447238885119388,-0.6443921066282459,-0.9703198466571094,-0.19323472132145436,-0.7406297115201795,-0.4268723367855247,-0.6471772265846213,-0.5377662362700625,undefined,1491592932607
903d185fccf839df,-0.5544870932979745,-0.699612282446354,0.4838456331409702,0.5322484382477913,-1.2204300100924457,-1.9863529866063783,2.0374940437324183,-0.23006104874537037,-0.2704890434596205,-0.5160185525981181,0.06943544259422675,0.00043225995595253257,-0.8739903631907309,-0.6632358603905993,-0.9876009676178453,-0.22514444395153593,-0.92731051243858,-0.6400413736630143,-0.9624764224779234,-0.20855617355776093,-0.7415666952305832,-0.4288379726483225,-0.6448577318243872,-0.5182047927693021,undefined,1491592934117
903d185fccf839df,-0.5309248672283068,-0.6690874587020533,0.39898981400239586,0.5054921440463479,-1.2202860077972464,-1.9444453151785461,2.0068883533117226,-0.38608249817556456,-0.24212095263628236,-0.39272950784180055,0.06528226208366916,-0.0025341968421864905,-0.7956564728163993,-0.6743459024989623,-1.0118114746606397,-0.26757721046667005,-0.9658166628799374,-0.6619533581556105,-0.9815777167584899,-0.2636210158468371,-0.7703255097640721,-0.4288979250553405,-0.6580440215176118,-0.5194230820834057,undefined,1491592935615
903d185fccf839df,-0.4713262954050294,-0.7635969610835737,0.43599418693403824,0.5022994109573532,-1.0826325220888375,-1.9754940745714307,1.9507104351551416,-0.7481012528240377,-0.2828761775026804,-0.20262942553923877,0.11972801419649505,0.054915008568205,-0.7956564728163993,-0.6586067225857235,-0.9928640813106604,-0.21100015547098275,-0.908918584016442,-0.6114671307054351,-0.9859787099924678,-0.1916948779480467,-0.7332714382587503,-0.46814183384863095,-0.5618932989926981,-0.5354894831959973,undefined,1491592937107
903d185fccf839df,-0.31747861227062246,-0.7859035602401788,0.5112797168312262,0.5789114833885267,-0.967278431584877,-1.9690583855102752,1.9592415301614703,-0.6675813565434688,-0.28005316419555903,-0.06880748455369841,0.11309702726477515,0.1733672544631646,-0.6650999888591801,-0.6558292088209391,-0.9970746532494842,-0.17462916832773392,-0.9357825239235196,-0.6399780439106504,-0.9808920276532033,-0.07999455435758882,-0.7298552481091529,-0.48975451949460774,-0.5580757137252841,-0.5317751953259824,undefined,1491592938622
903d185fccf839df,-0.4574660934120524,-0.8357998789224852,0.43025221669876595,0.45707607855047394,-1.0132966406911301,-2.0192441729942465,1.9692479412445785,-0.6674676268601932,-0.28928005176510363,-0.12485791655168285,0.12205794362686648,0.13356637672710767,-0.3343568961675579,-0.689159257441381,-1.0054956793313912,-0.12007280067174685,-0.9131523014603694,-0.6311372549910178,-0.9975444373990024,-0.05917585557571692,-0.7285308993723547,-0.48952768310232553,-0.5257955885775089,-0.5124423515734134,undefined,1491592940634
903d185fccf839df,-0.5683472952909515,-0.7894256502289071,0.32179012460215084,0.34233018937818716,-1.0923730815313994,-2.0184499023706706,2.0001718373606145,-0.48331277494876235,-0.2759478530530668,-0.3009312495347988,0.15626128271810116,-0.08147480916930927,-0.38657948975044565,-0.6734200451512058,-0.9991798766399089,-0.11805218399385047,-0.9073076467779514,-0.6669183853730426,-0.9850411364969558,-0.02141886967040194,-0.7353967203599858,-0.5002388365998012,-0.49091074983387323,-0.5102162621016895,undefined,1491592941599
903d185fccf839df,-0.4907304815800499,-0.8046880840220517,0.20120620829193844,0.2491080672992263,-1.2021214673354434,-2.024673629580721,2.010501712698469,-0.43611585857125246,-0.2532109164156201,-0.5010717617503063,0.16483795985507552,-0.14421926125239953,0.7013912098930482,-0.6863817372012093,-1.0276009777082284,-0.1301758840612288,-0.8930118218796178,-0.6890330255637519,-0.9854189633973224,-0.09178976511760989,-0.7582096132226812,-0.5101025567137163,-0.43043974070384633,-0.5222132656393152,undefined,1491592943108
903d185fccf839df,-0.5988396223571077,-0.756552773799119,0.49213964662235227,0.4689345936722673,-1.3487543615791384,-2.0336481889825246,1.898422009415315,-1.2111716947650482,-0.26461087640313324,-0.5932421946931382,0.15103143451768972,-0.3296911882330037,0.9973192401960785,-0.7095275751594956,-0.9939167334981586,0.02743156672609405,-0.8318396596820203,-0.7396965762175641,-0.9737482824818842,0.046888631892647116,-0.7499655683365443,-0.4894757944157713,-0.46417011904503597,-0.4589116655110003,undefined,1491592944597
903d185fccf839df,-0.6542801542857379,-0.7360072707858647,0.8672902579374394,0.86029106415917,-1.3400320899463753,-2.013900898359857,1.9517912869975045,-0.8436875713075469,-0.26208835638762673,-0.5301915392867742,0.1999008715168597,-0.38409072713743037,0.16175774286987524,-0.7048984049776834,-1.012864119485904,0.2234305365403975,-0.7948360610018244,-0.768802784041131,-0.9746298809765498,0.17700549560413523,-0.7335870353504848,-0.4776967579146981,-0.5145492302282898,-0.4625279261218516,undefined,1491592947509
903d185fccf839df,-0.6542801542857379,-0.7377683157802288,0.8679283958174415,0.8707848158231709,-1.3351360983081038,-2.012619816752887,1.9484251354214723,-0.8650483496635862,-0.26343602353308904,-0.5374590695107625,0.19849333705209415,-0.39171976240011797,-0.025373217468805696,-0.7178600905522997,-1.012864119485904,0.2234305365403975,-0.8023087681663813,-0.7731155184916516,-0.9746158873364451,0.1750498928843714,-0.7357293613952393,-0.47553085928198785,-0.5154687507402402,-0.46144000087269893,undefined,1491592947708
903d185fccf839df,-0.7457571699896165,-0.7518566757351421,0.9661820607926681,0.9783121215035891,-1.3692126146670893,-2.010334833064312,1.9663709435880024,-0.7600597401251848,-0.26683254154013974,-0.4763283231923544,0.26839339339511553,-0.27570135216049324,1.071301247771836,-0.7632259609242139,-1.000232536189641,0.26990443748479903,-0.7888014313599891,-0.8053818662455937,-0.9778624082928025,0.19111047175409437,-0.747933873528765,-0.4702962866305883,-0.4870738422088479,-0.4439273748523475,undefined,1491592949159
903d185fccf839df,-0.7928816911397716,-0.7547917507257491,0.9138649201104682,0.8805924038678314,-1.3328526759261787,-2.004590929141748,2.001134344380787,-0.5248361931994601,-0.28108330394666314,-0.5193250810820227,0.3000516389289386,-0.3646226086259491,1.3759330436720143,-0.8409959901918769,-0.9949693635989554,0.06380249733989979,-0.8159634455819285,-0.8741766338781825,-0.9874550354297231,0.05692841926598758,-0.8066640208470256,-0.47052551393784153,-0.5047197524810525,-0.4406813365032457,undefined,1491592950598
903d185fccf839df,-0.8122858600620873,-0.714287686627381,0.8819643795340959,0.8926742678404872,-1.4041017018943232,-1.9831386351271076,1.964361762219037,-0.7608130554662595,-0.3028067454646228,-0.5673186116097797,0.3226224191372952,-0.30822626637744627,0.7927807486631017,-0.8132209820517784,-1.0149694091364327,0.06380249733989979,-0.8416712816559692,-0.8525306328705468,-1.0216974283006097,0.07212668575613546,-0.8086429783284231,-0.4674591416610168,-0.5052366551132466,-0.4329348969760982,undefined,1491592952107
903d185fccf839df,-0.7221948921618341,-0.7360072269438762,0.6924747873050207,0.6893150334871447,-1.3861531626727452,-1.9725149749081285,1.9494954638598934,-0.8479907952079807,-0.298910329696665,-0.610163066208101,0.33683714053298675,-0.24206469965113123,0.16175774286987524,-0.7511901262219669,-1.0254957322311025,0.05774064730621063,-0.8995453579998017,-0.8535565703719276,-1.0252797965583054,0.030119725326671024,-0.8116714779739487,-0.4908626138637522,-0.5744130531897322,-0.474333097762276,undefined,1491592953621
903d185fccf839df,-0.7000186966430869,-0.7254409715916874,0.2637315219585775,0.25006192530069754,-1.4609096103527524,-1.9904291541440242,1.9298481911840157,-0.9997661413899604,-0.27941384987511186,-0.5834181464031142,0.27408472353073426,-0.30165410238199025,0.07036820409982177,-0.7956301392461246,-1.0612852366427659,0.053699470479860935,-0.9055785747199877,-0.8651395240312142,-1.0416383396172268,0.136907947660311,-0.7920647437599994,-0.4873252818753871,-0.6050105133813725,-0.5212181253639524,undefined,1491592955095
903d185fccf839df,-0.4838003805835614,-0.7530306765033926,0.0857263784739456,0.09252662150296413,-1.2590630909876679,-2.0055482465454566,1.9689481593625497,-0.7191937166922012,-0.2929556890325271,-0.6734315114918491,0.2571742105561021,-0.22701177003987202,0.5099083667557933,-0.8446993289274816,-1.0497062834472994,0.04763762044617177,-0.89819412190586,-0.8980834972015704,-1.0289951028218507,0.16998380718655262,-0.7928771989309669,-0.4959759946073208,-0.6123856622430742,-0.5150306106553916,undefined,1491592956608
903d185fccf839df,-0.7027906887341087,-0.7489216007445352,0.17696205159084497,0.19393779351261967,-1.273977351389368,-2.0191626502318476,2.005633955391195,-0.48804567174810803,-0.2646131679530452,-0.7246956626904466,0.2874196171384379,-0.34369060190789685,-0.2647267713903743,-0.847476842692266,-1.0370746854265687,0.1931214135631986,-0.8600811332670939,-0.8998313896399207,-1.0247760258509804,0.11575048399405793,-0.8009882957638471,-0.49858386861459664,-0.5869311633641385,-0.5129804734662451,undefined,1491592958107
903d185fccf839df,-0.7762494970557727,-0.7782723506506045,0.47555161965958814,0.5010010876633998,-1.30151215749208,-2.0001840088835947,1.9301216959818441,-0.9772616294682017,-0.2759953749137033,-0.7548978897682721,0.3361354489753119,-0.2285388868995832,0.40111129679144386,-0.8585868200467562,-1.028653615171259,0.12442075742665834,-0.8419470570429951,-0.915847403768185,-1.0074449248078519,0.11812184498319298,-0.8002610593211341,-0.4886454061770469,-0.5858129507519826,-0.5439585155823574,undefined,1491592959606
903d185fccf839df,-0.6542801542857379,-0.650889964532298,0.904932768749084,0.9157449187917416,-1.2568928024448665,-1.9621056067045524,1.9772451751488087,-0.620445191119476,-0.21651879909124364,-0.7106275386739963,0.37419587060907816,-0.2826296687471705,0.3967594139928699,-0.8678451668857678,-1.0370747001510363,0.05774067557093217,-0.909214059714173,-0.925859787367795,-0.9889663470317479,-0.06060791054450318,-0.8444477230510332,-0.4818878108634967,-0.593241072429347,-0.5196267643074532,undefined,1491592961106
903d185fccf839df,-0.6071556676409926,-0.7929477402176354,0.8755845255557709,0.8808297807723866,-1.1595181078054824,-2.0144366238828235,1.943460062292022,-0.8698438646042747,-0.21320933322972882,-0.6557389077255827,0.2550478382233417,-0.21487218075690676,-0.03842886586452762,-0.808591805394579,-1.0497062760850657,-0.2978862627820651,-0.9596677563636252,-0.8792873197746478,-1.0069551478201533,-0.37162571138588985,-0.9015859366621447,-0.4796827559134436,-0.5696683094037701,-0.5177364834491943,undefined,1491592962652
903d185fccf839df,-0.6210157661177403,-0.9238522309386665,0.7907292146910955,0.7865035586053498,-1.1959089041876518,-2.0574134167390943,1.9640856281415062,-0.7734167895658903,-0.2558290826850935,-0.6997594185351216,0.23103571586476576,-0.09647414585169792,-0.7173225824420678,-0.7789651343620655,-1.0412852131919899,-0.09178432263716589,-0.9513386447783968,-0.8559884209544393,-0.9665205775191534,-0.26904126903433695,-0.8598363041520716,-0.4801480244803421,-0.593260619524392,-0.48041022487242296,undefined,1491592964112
903d185fccf839df,-0.5919094868552096,-0.8610415603766953,0.639519762879768,0.6521072373914366,-1.1926277672384862,-2.0603389411858517,1.9878196363503258,-0.6087732921090147,-0.23607836884660668,-0.7088129232090004,0.1442069385058995,-0.00990846717425481,-0.847879066399287,-0.7317475751961872,-0.9633903943149468,-0.18877348507300865,-1.0260924409961598,-0.8260335977424054,-0.9459779405099613,-0.2225225654084169,-0.829023437118884,-0.48186519405351325,-0.606061962651246,-0.49612524132233043,undefined,1491592965609
903d185fccf839df,-0.6695263350715209,-0.8146673389901152,0.5329723385601087,0.47483302894855567,-1.241361400785005,-2.0496500617885647,1.9761169983668398,-0.6898552627890271,-0.22807677878554827,-0.7178778893579426,0.13241163341535048,-0.0006228716471805108,-0.8609347147950089,-0.7132309333212621,-0.9476008986295918,-0.08976372009163026,-1.0047732598042298,-0.8011007986672231,-0.9369660485045271,-0.10446268328322568,-0.7933826871124201,-0.476958153253294,-0.6062819894434517,-0.4951431104567301,undefined,1491592967101
903d185fccf839df,-0.6501221661492053,-0.7659450649180478,0.17951409483695474,0.18062819964209764,-1.2849727572683827,-2.014893154840196,1.9616635786277277,-0.7632506044833552,-0.18648639503577497,-0.6276083687600442,0.24765072635445934,-0.029556751114647374,-0.9175091911764707,-0.7150826026890644,-0.9002324189357607,-0.20291774528884027,-0.9726662760754072,-0.7607726128755845,-0.9289686935379098,-0.1130396176660535,-0.7774555262541392,-0.4790989991699055,-0.583282942691398,-0.48027137347214177,undefined,1491592968606
903d185fccf839df,-0.6376480292125586,-0.7888386352307857,0.2796816651782889,0.26626427852834705,-1.2129214516444653,-2.0027252093799333,1.9956511910650632,-0.5233958455859455,-0.22081630154453274,-0.68913125057263,0.2650228624582727,-0.021526637873738055,-0.7608414104278075,-0.7021209171144481,-0.8970745212711364,-0.2049383478343759,-0.9978013236742476,-0.7640784091651298,-0.9280591084726143,-0.158172459438245,-0.7840655975867333,-0.4809843406270927,-0.5868782526460675,-0.48140421477383843,undefined,1491592970108
903d185fccf839df,-0.6487361355982846,-0.7788593802627222,0.5336102223031615,0.5441536922582773,-1.203283750450621,-2.0077214274818527,1.9943573235708618,-0.5361014769571621,-0.19446722269277936,-0.582706443622989,0.3240674456160461,-0.05880565787194745,-0.8870460115864528,-0.6623100483705536,-0.9191798122857399,-0.26353600537559885,-0.9705081791494256,-0.7242695241017107,-0.9450193782823623,-0.16868959653376242,-0.7739037941088595,-0.48301681593017093,-0.5869120250748454,-0.5030565668099027,undefined,1491592971609
903d185fccf839df,-0.6293318804124446,-0.8105582486172617,0.5814611602361945,0.5627501517715582,-1.1259147369551634,-2.0286752630054976,1.9576268297872703,-0.7817934133524023,-0.2508801214146425,-0.5526994058351836,0.26616119032161933,0.054353465609837816,-0.852230949197861,-0.6836042299118121,-0.9518114337572466,-0.303948126948115,-0.951010786457333,-0.7408555033713337,-0.935286814432426,-0.14757832832500914,-0.780368653766804,-0.4717305938365015,-0.5740655880657942,-0.48646797885736,undefined,1491592973121
903d185fccf839df,-0.4616242023175191,-0.7941218140558667,0.5374385413092756,0.5134725635129005,-1.0845868036759252,-2.026541679755092,1.9509970873990055,-0.8025525771837428,-0.1864619385243668,-0.5419537842313478,0.264713621424599,0.03724782536366999,-0.6172292780748664,-0.6956400840402209,-0.9528640638580435,-0.287783250054387,-0.9523431797534863,-0.7430403703408104,-0.9141774357055208,-0.12072343999171545,-0.7713431738223098,-0.4462229601639656,-0.5855391523229603,-0.4525548626991482,undefined,1491592974614
903d185fccf839df,-0.5281527888737606,-0.8475402081129053,0.471723300653474,0.39767242584945867,-1.1920826253474608,-2.0400070117926767,1.972501015985522,-0.6906304048082057,-0.1905229678039586,-0.5094738165373666,0.2316290905330562,0.09244240055408465,-0.6868594028520499,-0.7419317664321808,-0.9581272364487289,-0.24737110021714925,-0.9959617894054259,-0.7671435536060076,-0.9234202234669664,-0.16995226946422737,-0.7954972355398094,-0.445171114478512,-0.5842062355041493,-0.4550169123463065,undefined,1491592976549
903d185fccf839df,-0.43667596294963557,-0.8187764293629688,0.3728314977982453,0.30269511811036015,-1.1299981579432437,-2.0358586367026335,1.97767384306484,-0.6481906412825605,-0.1709809389283718,-0.48544850384898314,0.2267399745191303,0.03288699481801012,-0.8130640040106952,-0.7400800970643785,-0.969706167557494,-0.2514123194405813,-0.9938194986276884,-0.7577264666234856,-0.9093706270920232,-0.15233644851986627,-0.7845075439323911,-0.43744667494203093,-0.5722809140076983,-0.47411983717197054,undefined,1491592977647
903d185fccf839df,-0.43667596294963557,-0.8240595862670556,0.36772741130602576,0.36903476782774947,-1.1499729814639164,-2.0430629723834692,1.9935552455609507,-0.5550078730751132,-0.15377240822938978,-0.2978682847826766,0.2301600910412921,0.0053139599610280835,-0.9349167223707665,-0.7548934455314098,-0.9528640712202773,-0.24939170276268488,-0.9662858045029411,-0.7253777915651174,-0.8980357928723341,-0.05072210700635926,-0.7528467086060525,-0.41990579812477663,-0.47239419004372324,-0.4520941419802014,undefined,1491592979125
903d185fccf839df,-0.3341107718492115,-0.7418773915390862,0.3473110653371475,0.3831373644115828,-0.9405253315312846,-2.0243172556501325,1.9735187483546701,-0.6334592235944926,-0.1646744448796901,-0.11649851383591986,0.2783417335419062,0.005104910832712576,-0.8391753008021391,-0.7132309333212621,-0.942337740763374,-0.24939170276268488,-0.9548544020582549,-0.6922121665508989,-0.8938377066766491,0.010009361268377882,-0.7243389199382366,-0.41654450859058123,-0.5017708574462727,-0.4347419648411491,undefined,1491592980607
903d185fccf839df,-0.3881653249850356,-0.6561730995153905,0.44811702769543327,0.5339371239614702,-0.8789551488629607,-1.9934781280328484,1.9302084684971654,-0.877829294371699,-0.08909713275691733,0.00828693825859848,0.33705453356300263,-0.07278639979851768,-0.8043602384135473,-0.6817525799701717,-0.9223377173125978,-0.19281466189935834,-0.9555201869445044,-0.6414662888362737,-0.8903532956491648,-0.0017088560258793563,-0.6998317031670044,-0.41731365842551676,-0.47253197920107526,-0.4459872287294566,undefined,1491592983624
903d185fccf839df,-0.4546940668156209,-0.679066713670117,0.5725287547378609,0.6868668871079482,-0.7519576506578044,-1.9734816101706842,1.9849662864982474,-0.4572735698212714,-0.12065954393619786,-0.09695494291269177,0.40216174243045333,-0.060003873907322404,-0.6563962232620321,-0.6354608522505009,-0.8833902710629075,-0.10794918539853314,-0.9120876465712058,-0.5679281457249183,-0.8658854484538532,0.17492671137884028,-0.625812184099282,-0.41622312747441736,-0.39577835003070766,-0.4105030409524163,undefined,1491592985099
903d185fccf839df,0.08169359717502128,-0.603341705842477,0.9968068338829349,0.9958661334774894,-0.5697053885841568,-1.9304698788353252,2.029475764591588,-0.05789589079752438,-0.1803097574378331,0.01581120351549981,0.2903316572509239,-0.09634962538592275,-0.5258397393048129,-0.47714325404884134,-0.8254954829988743,0.19514198784401268,-0.7459180683634072,-0.459818463333367,-0.8236596950210864,0.4292012422449777,-0.5151069347594185,-0.39016146673894453,-0.3374183257646446,-0.3192617262240266,undefined,1491592986612
903d185fccf839df,0.12466004392511934,-0.5916014351080416,1.4670209290471368,1.5233159782370076,-0.5828916531237174,-1.9186373430282784,1.9888189611427503,-0.3201238768373303,-0.24103861424363285,0.14653426397304378,0.3362572426302164,-0.08227301906502352,-0.3778757241532977,-0.3780790885676307,-0.8086533498504886,0.215348126358255,-0.7161227645002415,-0.3672941567714103,-0.8128985997092449,0.5846485489983154,-0.43897326740862275,-0.4242272161378615,-0.3153563968786059,-0.3391358251370578,undefined,1491592988105
903d185fccf839df,0.05951731539274977,-0.5886663455034385,1.4574508939426998,1.5090324703751077,-0.681963487334334,-1.9281126884365294,1.9764825352869166,-0.455646967784282,-0.2057380108218707,0.20516732628376372,0.37823061150287374,-0.10581881738136908,-0.8957497771836007,-0.31141899132674705,-0.8170744127435646,0.4012440693125196,-0.6995523646331269,-0.3296321402568804,-0.8060487211881013,0.6831216090273979,-0.3960723715624608,-0.44428899844462116,-0.3016076514115665,-0.3616450453632014,undefined,1491592989596
903d185fccf839df,-0.21352751138821185,-0.6150820642608895,1.3840795235485688,1.350524945355822,-0.8570054745136841,-1.9473661807092442,1.9147583579591798,-0.943222245878841,-0.18725721458652025,0.28170169005710827,0.3767239771182514,-0.01719647603798947,-0.9349167223707665,-0.2956798114135082,-0.8570744596451167,0.5729957520509525,-0.6497622145025309,-0.22130080586090353,-0.796036283906017,0.7647487693747607,-0.33217735051480207,-0.42286390613982494,-0.21184864516152388,-0.3686731007971092,undefined,1491592991103
903d185fccf839df,-0.15392887055411503,-0.5927754504902882,1.3815277344394084,1.4145364448395823,-0.7725599023880032,-1.9409863947121544,2.024226670069259,-0.1961487287405089,-0.16391326884355428,0.42693544129883504,0.3898795429984772,0.04176336743619388,-0.9218610739750446,-0.3354906607312409,-0.8970745359956039,0.5750163404641273,-0.6971448219619726,-0.23008459964945932,-0.805859806792832,0.6742367067453178,-0.3553327100631465,-0.4375976973605925,-0.247560407793723,-0.40709102098891986,undefined,1491592992654
903d185fccf839df,-0.09433029873083768,-0.6667394133235639,1.1288749448006414,1.1543173646406424,-0.85303520008204,-1.9346741567081045,1.95306149621199,-0.6798391092133167,-0.21803352020162953,0.12325327576670854,0.3967565173495284,-0.013561871822455837,-0.9305648395721926,-0.2771631436370341,-0.9139166617817558,0.4659034638285455,-0.6741003983720649,-0.2720466849984518,-0.8031030625856079,0.6027263244503615,-0.3889701625960896,-0.4442642893506669,-0.2545554725044755,-0.4040294270441409,undefined,1491592994108
903d185fccf839df,-0.24679189955620937,-0.6109729300460475,0.993616652756823,1.043701209302102,-0.9598110239411384,-1.91264886954778,1.9543027582092216,-0.6667483388337739,-0.17500311424070036,-0.28666158785322204,0.4907207391316839,0.007043526043839652,-0.8826941287878788,-0.2169839636504122,-0.9370745534482209,0.294151752825391,-0.6916107132453774,-0.32695963845134435,-0.8047543101482497,0.4581657181159803,-0.43471003618915893,-0.3967671428356532,-0.34647066780836366,-0.4269002718692412,undefined,1491592995611
903d185fccf839df,-0.2856002719062504,-0.5505103267835598,0.8468739119685612,0.8866352218256608,-0.8142169827437155,-1.8953449515527927,1.9418506204772266,-0.6938576062375147,-0.1881282476701969,-0.24463977166081402,0.43580209309310064,0.050491041211361685,-0.8783422459893049,-0.20494810952200346,-0.8854955533512024,0.263842700509996,-0.6377942509942636,-0.3298791245177054,-0.8001084289617824,0.4410426457431119,-0.4306981964767906,-0.3855803678493481,-0.4178413019864885,-0.4605988666814417,undefined,1491592997106
903d185fccf839df,-0.3784633354137545,-0.5188114876570126,0.8730322281727118,0.8923925701177998,-0.7972970084287346,-1.9049111368615244,1.8884234819812282,-1.0504170303542746,-0.19788238257241814,0.003359908875214163,0.4706344144673419,0.14303472399609207,-0.9131573083778967,-0.1540272828497805,-0.8802323660360494,0.2577808222115853,-0.621339349750714,-0.3301831065229135,-0.8124857874454438,0.4326504908747654,-0.4305841609990389,-0.3527094881196872,-0.4942181584767217,-0.4660234721508106,undefined,1491592998596
903d185fccf839df,-0.23986186757054034,-0.47067618474107803,1.2175583205344815,1.2409244005857138,-0.7728890479660866,-1.9325242678467685,1.9314260690721166,-0.7876590724936324,-0.24936341125700892,0.16008077567520654,0.4346466242964548,0.007560086916814824,-0.6650999888591801,-0.29290233650104747,-0.8318112856903566,0.19514198784401268,-0.7108121377820229,-0.3943484923993055,-0.8296489636573102,0.36400422401000354,-0.4765295241179808,-0.3156534590861616,-0.49789014800453363,-0.44461049404668873,undefined,1491593000118
903d185fccf839df,-0.4006395826906163,-0.5704688513336832,1.1684316151153429,1.2409244005857138,-0.9525184605177641,-1.958059717008435,1.9396521100192277,-0.809966376810568,-0.216393333781846,0.18231707299717065,0.4985469063772624,0.03020120183138004,-0.7869527072192514,-0.4234449265626085,-0.8612850094972391,0.13452377015433645,-0.7581276164019616,-0.4533841933488799,-0.870293438633283,0.20684769169685108,-0.5399760625090969,-0.35204742382622034,-0.5089869304587729,-0.5041585754551482,undefined,1491593001610
903d185fccf839df,-0.5683472952909515,-0.5534453871601707,1.12058067718231,1.2323421587593533,-1.0683971192200745,-1.9578291220101078,1.9699369528946191,-0.6365821110933475,-0.1688003126384828,-0.016311389151539825,0.45850948278544074,-0.05084736697939365,-0.8217677696078431,-0.4762174549795702,-0.8697060650280812,0.10825595119473416,-0.8627626553004561,-0.4667720361278599,-0.8933199430020964,0.12466618638452266,-0.5697517181680402,-0.35709419083655103,-0.5136260639523363,-0.483864696990032,undefined,1491593003110
903d185fccf839df,-0.6168577607285028,-0.7929477548316316,0.8009368794016357,0.7883201744493855,-1.0946462151894978,-1.9781354293410582,2.001776016425917,-0.4382778949202137,-0.16568241355126792,-0.2189488865009743,0.263366949473642,-0.028006943001839896,-1.02630626114082,-0.5345450109261006,-0.9128640169564913,-0.14229944280499943,-0.8969511966186668,-0.5079741689110385,-0.8892198113512327,-0.06864589679233445,-0.6318680058783942,-0.3749032774315028,-0.43874677124498906,-0.4537617377725538,undefined,1491593004603
903d185fccf839df,-0.5489430746105213,-0.8035140394118128,0.6427101981428293,0.6598664674070912,-1.21545172640218,-1.980667312742805,2.0160506032443704,-0.3635972972458726,-0.2084042033164085,-0.36283655373161716,0.17305233587262728,-0.03357341673270519,-0.8783422459893049,-0.6271283757100204,-0.9360219454341254,-0.39083426252391895,-0.9277796575859611,-0.6145259457239551,-0.9314665558161016,-0.2950184437424488,-0.7378448845429317,-0.3931541149517133,-0.5258604050006928,-0.480823429909918,undefined,1491593006184
903d185fccf839df,-0.6639822991313628,-0.8457791631185412,0.8175254146382988,0.861396456515494,-1.3040218684757026,-1.994544920171783,1.9484856298050715,-0.8416886242823021,-0.22994785573515225,-0.34387583935884314,0.17529932906512732,0.017835269774826443,-0.8391753008021391,-0.6919367453046162,-0.9265482229913176,-0.4635761378838912,-0.9553383984349064,-0.6421439115784783,-0.9240499359381512,-0.3096623673677515,-0.753534342628886,-0.4618046028748445,-0.5459682185113202,-0.533749129260082,undefined,1491593007610
903d185fccf839df,-0.7097207724778923,-0.7911866952232712,0.6414341765197744,0.6734280248774887,-1.263979650187018,-1.9792720986316121,1.980958463924607,-0.6099555642563551,-0.2098499075284595,-0.3803562488085673,0.2786576334289785,0.021802397341407532,-0.8043602384135473,-0.6789750532546127,-0.9476008839051242,-0.5080294928122002,-0.9595756012623454,-0.6382048197418839,-0.9383094368167894,-0.32134978598062885,-0.7587994434385641,-0.46407368760468043,-0.5478212544939867,-0.5454224087937842,undefined,1491593009110
903d185fccf839df,-0.7263529493091863,-0.7453994961418107,0.7518099198455477,0.7603565561590099,-1.250114527656401,-1.969517244343256,1.9809821242993668,-0.6042930594789578,-0.172604571607711,-0.3468247657843971,0.3461975027442022,0.13455313476827913,-0.678155637254902,-0.6993434357266001,-0.9539166865966066,-0.4979265224816044,-0.9930700529732386,-0.6664244160208926,-0.9306689192905215,-0.44422938263441714,-0.7964187233055443,-0.4647275646397219,-0.5788959312045081,-0.5496947182431559,undefined,1491593010605
903d185fccf839df,-0.7928816566343618,-0.6221262003963577,1.1480155232834142,1.1385382463181526,-1.3100698543712896,-1.9628975458369158,1.9344976816126982,-0.906517981182182,-0.21601265456322946,-0.3704675331619277,0.24072617023960158,0.015362627993219491,-0.673803754456328,-0.723415105131094,-0.9539166865966066,-0.564606519543166,-1.0087823380378949,-0.7346808826934533,-0.9192991007289472,-0.42803021721718515,-0.8202619615888763,-0.440939818638073,-0.6122056407456937,-0.5398557697614347,undefined,1491593012096
903d185fccf839df,-0.742985143393185,-0.49709190349852894,1.289016039699454,1.2483541561709837,-1.3470777923197006,-1.9247259743718477,1.9250093454782549,-0.9254809879716248,-0.26036693392314,-0.4201266414897023,0.09914406644774089,0.0324037494525867,-0.8043602384135473,-0.7539676140852023,-0.9560219688849015,-0.5444004516907275,-1.0480745251172434,-0.7304124789870909,-0.9114206921650565,-0.48974718535429373,-0.8262922251576568,-0.4387269134643641,-0.6114819644549329,-0.5314778580639015,undefined,1491593013609
903d185fccf839df,-0.7305109892038335,-0.5593155663693768,1.1282368069206392,1.1293283116620896,-1.250916815686355,-1.9279333371041887,1.9347448904709335,-0.8450883266621976,-0.3085869384690959,-0.5307725955551391,-0.010608475586990998,0.0066136317066583265,-0.7695451760249554,-0.7863718053578874,-1.0433904807558172,-0.653513229399784,-1.0723190287832416,-0.7717412696029243,-0.9694732323881049,-0.5591787757908258,-0.8789949208777434,-0.42879313183784024,-0.6434789728245349,-0.5105376072099999,undefined,1491593015108
903d185fccf839df,-0.571119321887383,-0.697851252065986,1.077834334015395,1.0904248414074873,-1.1193524671138888,-1.9617329273551165,1.9430945190868139,-0.8150861532384825,-0.312595840187667,-0.3609720941927406,0.05510660456180719,-0.0051044223098938475,-0.9262129567736186,-0.7854459609609054,-1.0370746854265687,-0.548441699178881,-1.0360454415271463,-0.775617032296188,-0.9709425625070465,-0.5251482102102363,-0.8757058482079375,-0.40756750308879214,-0.6309352125566952,-0.48563221967595577,undefined,1491593016602
903d185fccf839df,-0.40479758807985383,-0.7706411556750266,1.045933793439023,1.0498308280222552,-1.0278303313886898,-1.9905689091113998,1.9809006103434508,-0.572670209675044,-0.3012300828685627,-0.1595425197978327,0.06595038213525037,-0.06920272136911802,-0.9175091911764707,-0.7845201295146979,-1.0591799764411722,-0.49792643768743977,-1.047913053458563,-0.7863070412568456,-0.9957742443940126,-0.48866929234217954,-0.8816502241974885,-0.41004588536601977,-0.6320640704826249,-0.4823959753686051,undefined,1491593018101
903d185fccf839df,-0.4020255614834223,-0.7553787803378667,1.06060766089873,1.0475381318462682,-1.0257731924451172,-2.0035614053771016,1.9725457147879906,-0.6403928474083062,-0.30139591445104313,-0.11935447481837198,0.11565909392293247,-0.09465804554145124,-0.7913045900178254,-0.8095176303653993,-1.0781273697911515,-0.5080295210769217,-1.058169270299125,-0.7847618027171921,-1.0118459195955634,-0.4938123751405857,-0.8909803756745697,-0.432504511051526,-0.6197420605096723,-0.4953734770146416,undefined,1491593020297
903d185fccf839df,-0.47964230618350445,-0.7712281852871441,1.1378068420250762,1.1071037844799185,-1.056568567665846,-2.0075793435420923,1.9725614925612507,-0.6496646718788825,-0.31861383743442534,-0.10354212419853319,0.05953359382490117,-0.15889371944535952,-0.8304715352049912,-0.759522615713222,-1.0907589604496484,-0.4858028082818653,-1.0435863690096825,-0.7889542114371622,-1.0186538170251158,-0.45403818932775747,-0.8875126466714829,-0.43099311036457283,-0.6151757270237705,-0.4938909082280468,undefined,1491593021135
903d185fccf839df,-0.5614171597890533,-0.7101785670265351,1.1244089961884238,1.129397449055348,-1.1288975873678693,-1.9722145044171646,1.8986586854419125,-1.110583498561287,-0.3429050902513809,0.01178095067305854,-0.025292370400856228,-0.21815756030146297,-0.6302849264705882,-0.7752617891510735,-1.0549694413135173,-0.4130609470542538,-1.0440647368952187,-0.7989285980280345,-1.0173664033711445,-0.3668521909954862,-0.8721843158660988,-0.44532424716839697,-0.6244667057496407,-0.4974609284709233,undefined,1491593022646
903d185fccf839df,-0.44915008263357736,-0.5182244872728874,1.2462691882586407,1.3309304959965353,-1.105991343696146,-1.8975553995610266,1.859819092423042,-1.226041110644584,-0.3192604044017894,-0.465892570392648,-0.035021381314988415,-0.2246283075469663,-0.3430606617647059,-0.7039725929576377,-0.965495632429839,-0.3079893179068255,-0.9786518364642932,-0.7401588813883836,-0.9587401250599347,-0.3026098783975281,-0.8120679931994141,-0.38117231122572764,-0.5722142472078908,-0.4744585448065702,undefined,1491593024101
903d185fccf839df,-0.3368829019618722,-0.44191244983313,0.9062092986460377,0.9451192032120412,-1.031924037399633,-1.8539543696212695,1.8785170107623912,-1.0277806346610514,-0.3939781320599909,-0.582033298173445,-0.02810876131829668,-0.21194178262376623,-0.06454016265597147,-0.6910109138584087,-0.9160219072588818,-0.18675288252747302,-0.9485622337536228,-0.7195894814647676,-0.931557514522659,-0.19714592571092185,-0.7703079075592902,-0.3764950131014092,-0.5118724427165285,-0.45550133964387673,undefined,1491593025621
903d185fccf839df,-0.38123529299936654,-0.4976789038826542,0.7128913874108482,0.6669753719913291,-1.083877093891133,-1.8481475766738225,1.9241125830209127,-0.732493134957131,-0.3741636840417165,-0.8608577775233224,-0.00779748697515705,-0.1175889205540675,-0.5258397393048129,-0.7280442817882934,-0.9181271674604754,-0.2029177735535618,-0.9431491942621137,-0.7509058873958044,-0.9395268820561408,-0.2813292292409005,-0.7998448359437184,-0.3818270391788035,-0.4956297126659989,-0.4696674670305213,undefined,1491593027109
903d185fccf839df,-0.46716818649956265,-0.6549990695191477,0.587841268351469,0.562188172786088,-1.2224048619813257,-1.8933418053307298,1.8798897576951967,-1.1349646339801995,-0.34269240277065405,-0.6689572466455295,-0.01581045468521168,-0.07227340876053825,-0.9349167223707665,-0.7039725864822505,-0.9160218925344142,-0.3221336063873787,-0.9158677758726043,-0.7369227474848263,-0.942773402602655,-0.3551185792406263,-0.8052310180541914,-0.39052703242979264,-0.49974499937625694,-0.4500147790453647,undefined,1491593028636
903d185fccf839df,-0.6071557193991072,-0.7213318519908415,0.7205475171491776,0.6550577299407229,-1.3352286730243468,-1.9236987798989702,1.8941932739230327,-1.1287904849750876,-0.3411374133432783,-0.5163525139447511,-0.009266099812577247,0.13495237607568525,-0.8696384803921569,-0.6910109009076342,-0.9223377025881303,-0.33425723579295313,-0.9283151048202112,-0.7207547423982513,-0.9399816751362654,-0.39540091254157417,-0.8019636059134175,-0.40695266806245184,-0.5090885054999096,-0.4446700619735418,undefined,1491593030116
903d185fccf839df,-0.5697333258418721,-0.7166357320058704,0.6427101981428293,0.6392703040185096,-1.317742987900909,-1.9213159676984404,1.8746564529926284,-1.261119507245296,-0.31556977344404336,-0.5444956672081575,-0.009925685505143493,0.057744414043124345,-0.5606548016934046,-0.7419317599567935,-0.9370745681726885,-0.37062820880384123,-0.9574987580343073,-0.7575998075118612,-0.9549758412731789,-0.4001436337794173,-0.8237449254773963,-0.41105460926147475,-0.5150748030342935,-0.44377188489031205,undefined,1491593031609
903d185fccf839df,-0.5059766278604232,-0.6250613192289531,0.7256518577783466,0.7479591531872242,-1.2021728965568275,-1.946331996896426,1.8791902414966064,-1.2303655143695793,-0.30565841780219877,-0.4723762874822441,-0.010580822498564386,0.04277321331596221,-0.6520443404634582,-0.7660034293612874,-1.0476010085212382,-0.45549375596647024,-1.0442115571476052,-0.8005054999904951,-1.0180450943993231,-0.5157243666723995,-0.8878597180753511,-0.4697815112525766,-0.6441568546339362,-0.524480877365871,undefined,1491593033149
903d185fccf839df,-0.5877515504767915,-0.6403237091801092,0.69247504144197,0.6982292019526841,-1.2413305438019175,-1.9595178204670654,1.8872979376215278,-1.1957923247397093,-0.31169800910532397,-0.4425499289443789,0.014069470397001065,0.014247859836084169,-0.7956564728163993,-0.7734101197832712,-1.0686536767972787,-0.49994705436533615,-1.0590513608465222,-0.8018480833358724,-1.032178652669947,-0.5317079519821226,-0.8962570066252525,-0.4732238687884723,-0.6766860875008467,-0.5116435818645885,undefined,1491593034596
903d185fccf839df,-0.662596285833147,-0.7589008703265949,0.682905006337533,0.7160154807338276,-1.2938287404759983,-2.0027927565063335,1.9419295250563542,-0.8852591699328332,-0.29381470835066564,-0.31746939073984043,0.03297207827254353,-0.02962085409495247,-0.9392686051693405,-0.8039626352127668,-1.1097063464373937,-0.471658590463116,-1.0857693366585206,-0.8147419578091323,-1.0469069395959378,-0.5315847639339092,-0.909574195526012,-0.47720557809213304,-0.6812116877137421,-0.5105852170837066,undefined,1491593036159
903d185fccf839df,-0.7263529493091863,-0.8393219981392058,0.6344161846614472,0.5720540757896047,-1.3073852889686464,-2.040044279235543,1.9421241294651423,-0.9263740467053786,-0.30320329023189946,-0.3616178845998849,0.10603831228975828,0.018088424357446405,-0.9262129567736186,-0.8002593094279367,-1.1297063846126374,-0.5383385875246776,-1.0881841142690942,-0.8208659155410902,-1.060298835149001,-0.5255331741869408,-0.9199272675219532,-0.46262289820937197,-0.6774781911638895,-0.503869072887119,undefined,1491593037604
903d185fccf839df,-0.8275320235951653,-0.8757169426367281,0.5450946710476049,0.5083907541543916,-1.2771350537724568,-2.065831285606656,1.9356784722718106,-0.9876174683754924,-0.28402948002375744,-0.4626206405234484,0.13072927893179087,-0.009695559125431755,-0.8739903631907309,-0.8224793224154028,-1.145495861892408,-0.5383386299217598,-1.0873649280184976,-0.7886248986538444,-1.0976058305782834,-0.508286915421723,-0.9183601864365163,-0.465580866006889,-0.655426480154249,-0.4989743928286695,undefined,1491593039119
903d185fccf839df,-0.8053558108237133,-0.8346258635402386,0.3894195247610095,0.3310245036584839,-1.1634575299572643,-2.057271331379096,1.9702551669701338,-0.7291957307583969,-0.2791917694054951,-0.3633677125958578,0.1464003221755425,0.017279161018693857,-0.7826008244206774,-0.8132209820517784,-1.1465485030365554,-0.5787507938913583,-1.0885730188359557,-0.7770672766806808,-1.090539051556137,-0.5279507310643694,-0.9153348790800431,-0.4623056930603041,-0.6454377443889728,-0.49883360037822083,undefined,1491593041617
903d185fccf839df,-0.8136718906130078,-0.8029270244136913,0.3830396707826844,0.34088146095012,-1.147072414088857,-2.042508612872916,1.9958852545723065,-0.542801520128383,-0.27263107043361395,-0.39487857167959883,0.16832310291730165,0.04171174316611195,-0.7260263480392157,-0.8104434812377685,-1.1549695732918652,-0.550462216930252,-1.0873649280184976,-0.7754143787629114,-1.0861520512037481,-0.5121365253966766,-0.9106667018172686,-0.4608437756690197,-0.6351196869178102,-0.4936111623012667,undefined,1491593042124
903d185fccf839df,-0.544785034715874,-0.7835555148616894,0.21715635151164986,0.26515129092527123,-1.0409034512623068,-2.0399487791663855,1.9628364804002099,-0.7449732800896176,-0.21083936428423988,-0.32467237418444095,0.22045767218399742,-0.123687374698235,-0.5084322081105169,-0.7678550987290896,-1.1654959037487684,-0.5019676851755933,-1.0781612721075857,-0.8011007978976266,-1.0904900739656391,-0.46929805122863005,-0.913730498058491,-0.4636196141664392,-0.6293185775927196,-0.49487396157363894,undefined,1491593043608
903d185fccf839df,-0.39509539147611433,-0.7495086303566527,0.14378498111751897,0.14895785149394158,-1.0024452254422764,-1.9908763678600245,1.9534243965197113,-0.7691525079829671,-0.14383077634009897,-0.1507715660970977,0.24857748370166338,-0.18860606406576072,0.22703598484848486,-0.7595226027624474,-1.161285353896646,-0.47569978142182645,-1.0641452434895526,-0.813678024555837,-1.0889997532060876,-0.4423045754997019,-0.916157564527747,-0.4598628996186436,-0.5939733739810796,-0.4981418869071658,undefined,1491593045098
903d185fccf839df,-0.3285667186563485,-0.8328647893178821,0.14952745962669012,0.18216320272198294,-0.8300980868799613,-2.004064521303666,1.943609956375601,-0.8235097957905528,-0.11854729570327485,-0.004300214367727975,0.2448603007264164,-0.41395242662427034,0.3575924688057041,-0.7835942851177158,-1.1549695659296315,-0.3281953998916248,-1.035297913759627,-0.8316952489636705,-1.0954857969988743,-0.28681107513320087,-0.8958854341215919,-0.46384697734708263,-0.5910599475542226,-0.49178563376074363,undefined,1491593046619
903d185fccf839df,-0.1899652508131343,-0.805862070176306,0.2586274354663579,0.2772290311503598,-0.7143737099782762,-1.982218586399856,1.9103139901056185,-0.9860514953472221,-0.14822846045225352,-0.1283698920706194,0.2337748723062689,-0.3177200413155747,0.6970393270944742,-0.8224792965138537,-1.1570748224501082,0.19110081101766296,-0.9246101644608561,-0.8665454376161817,-1.1097452974554354,0.004127150719183551,-0.8475133515958638,-0.4637151254677161,-0.6298572771606952,-0.5039421751610869,undefined,1491593048103
903d185fccf839df,-0.4103416067673071,-0.8287557135590248,0.23884897324053242,0.23745252298767422,-0.7449530920388845,-1.983883991640127,1.9155104922250006,-0.9531728155387182,-0.18071165489341315,-0.2231610102160687,0.2830281134269896,-0.22001261014081877,0.5316677807486632,-0.8252568102786381,-1.1339169234214093,0.20322445455559823,-0.9066604944775738,-0.8983178159127773,-1.0966542646538449,0.06712218966678606,-0.8424943244281645,-0.45900756680269733,-0.617365586195805,-0.5126651619149032,undefined,1491593049627
903d185fccf839df,-0.4061836013780696,-0.7647710056938126,0.6114472871725604,0.6477048237845173,-0.8584043333119581,-1.972903957843014,1.9663656818860318,-0.622805132010463,-0.209374758205673,-0.3239761950815405,0.28611486530292923,-0.25681297890012417,-0.678155637254902,-0.830811818382045,-1.093916850752039,0.10623533451683777,-0.9472963902311271,-0.8873681564551299,-1.0615022864179267,0.0970259691753088,-0.8231624589134797,-0.45494315439009997,-0.6280491833894201,-0.509790510001502,undefined,1491593051118
903d185fccf839df,-0.747143217793242,-0.6350405595830205,0.51766007908345,0.5353893013105501,-1.110486196178706,-1.9634588925020107,1.9623105207550022,-0.7028761222754623,-0.2467828966943225,-0.356987657484753,0.3326998661670571,-0.1762433722766496,0.17916527406417115,-0.8382184958532544,-1.0381273155273656,0.19312139943083784,-0.9161351024182129,-0.8532462559711721,-1.030093602129489,0.06522817944988807,-0.8034233798878561,-0.4529351086479297,-0.6293033875359932,-0.5325315159931414,undefined,1491593052663
903d185fccf839df,-0.7415991300949692,-0.7864905898522964,0.8347518336180144,0.8337011835842518,-1.1519169834095426,-2.0013789075232475,1.9500845492634464,-0.8301488495084944,-0.2860979655377295,-0.2802117902889847,0.3232749310427724,-0.29093991154245197,0.3314811720142603,-0.8280342916664861,-1.012864119485904,0.14462682527909684,-0.9496623550538486,-0.8420242792986802,-1.0136650901604658,0.10007486140059821,-0.7861731599078958,-0.4607565000052101,-0.6373591958621625,-0.5488955253079516,undefined,1491593054119
903d185fccf839df,-0.6986326833448712,-0.7407033469288473,0.6337777926444956,0.6593500910423034,-1.182259787588482,-2.0021102902314016,1.8969440609162678,-1.1870374108399133,-0.2798779034164594,-0.2938011250717287,0.2992088013791236,-0.3867524175210779,0.21833221925133692,-0.8298859739850629,-0.9991799134510778,0.037534565321411376,-0.9517818714524221,-0.8421382720966266,-1.0027220778147672,0.002032961411523713,-0.8037344370856856,-0.4583258681359151,-0.6237886050669953,-0.5412997421596326,undefined,1491593055623
903d185fccf839df,-0.6071557366518121,-0.7823814848654466,0.7467058333533282,0.7909298637438393,-1.1004164950430724,-2.007104178997156,1.9225399636922176,-1.0153813542649819,-0.25222335567814913,-0.23873941862689002,0.30932461332522543,-0.26743463051393473,0.7927807486631017,-0.8372926579316595,-1.0097062365457474,0.05369949874458247,-0.8948546585523168,-0.8410490054906719,-0.9757353783307111,0.07465203311138147,-0.7811559130524159,-0.4725266539028428,-0.6355542311069825,-0.45887301609921166,undefined,1491593057094
903d185fccf839df,-0.6182438085321283,-0.7131136566311382,0.7160818226739096,0.7163645258547873,-1.1259250225301702,-1.971662476334853,1.895155793513467,-1.1572633704248265,-0.23822728360710693,-0.15069630661780328,0.3831898957760493,-0.31532190621097334,0.03990502450980393,-0.8187759707290235,-0.9960220231486874,0.08804985507757414,-0.8807437359885374,-0.8402193900682535,-0.9679339342582696,0.07049445438904958,-0.7805095799621791,-0.46954874108347483,-0.6181419615630852,-0.4349465525505209,undefined,1491593058617
903d185fccf839df,-0.6182438085321283,-0.7589008703265949,0.7677603172022086,0.7854478376784225,-1.1109593319968487,-1.984890224601358,1.8866851887006497,-1.2199734949262186,-0.17935793771238862,-0.13653085791797864,0.41454750349122726,-0.24174400680597527,-0.007965686274509793,-0.8104434618116068,-1.011811496747341,0.08400863585414213,-0.8793772244814309,-0.8456087245120708,-1.0037576060263786,0.07172633147868214,-0.7905609826739095,-0.4704670062179183,-0.6179327319443866,-0.4369529146169787,undefined,1491593060117
903d185fccf839df,-0.6168578642447321,-0.6820018178887162,0.8047651984077498,0.7914773980353713,-1.163910103959825,-1.951861612334475,1.9636674982947218,-0.6917714862866192,-0.13471507156248805,-0.07166776379273575,0.4654664247468681,-0.2415608491496358,-0.10805899064171122,-0.7891492867457355,-1.0349694178627413,0.013287278245540879,-0.9157567084152042,-0.8413149887375558,-1.0279455811658809,0.059961917811488234,-0.798513296753243,-0.4741666163129253,-0.6459019601153306,-0.4307063239092813,undefined,1491593061608
903d185fccf839df,-0.5697333085891673,-0.7407033615428434,0.7875390335649834,0.8035288177938824,-1.1425775665295794,-1.9697035826865295,1.9276707139161173,-0.9412622212262869,-0.12890036784649253,-0.09456449570108284,0.4230636818153328,-0.2644121111045051,0.11823891488413549,-0.7808167778283187,-1.0349694178627413,0.01934912827923004,-0.8660970052982725,-0.8263629089311633,-1.027770660783857,0.06655245139897646,-0.7889031049690817,-0.477800087391168,-0.6426791150968444,-0.44264182030697263,undefined,1491593063113
903d185fccf839df,-0.530924832722897,-0.6473678891575658,0.7211859091661292,0.7275911349228991,-1.0346291757287525,-1.9836464095937192,1.9404463127602924,-0.8460271280446336,-0.18785565262145856,-0.037023305564483903,0.33291205890864256,-0.13580652465585277,-0.5519510360962567,-0.7678551181552515,-0.9823378023893936,0.0334933743627009,-0.8678240583098257,-0.8050968843005577,-0.9714323393418186,0.019171433643381065,-0.7666965763396184,-0.49064490316102555,-0.6511394005123801,-0.4667174546715458,undefined,1491593064631
903d185fccf839df,-0.49904659587475414,-0.6591081745059973,0.6165518819386788,0.6457347516890368,-1.081891953134389,-1.9906457731602416,1.936617313679615,-0.8746688584896054,-0.21196945176469023,-0.007139478298666113,0.21641666516088856,-0.037875181342463274,-0.7434338792335116,-0.693788401721644,-0.9728640946710533,-0.2999069218570438,-0.9423193704418601,-0.7571185033328361,-0.9589990064445486,-0.24642095544697779,-0.8026723272366968,-0.4672046568650675,-0.5386901847593999,-0.5120285146195384,undefined,1491593066104
903d185fccf839df,-0.5226087874390122,-0.5692948213374405,0.5782712332470321,0.5371175766375922,-1.0800302453853154,-1.9697501697092898,1.9576952078198904,-0.686982909834327,-0.3160849741674069,-0.40534506086066957,0.15864353475173973,0.03418855422250175,-0.9305648395721926,-0.7048984049776834,-0.9233903400511609,-0.32213356399029636,-0.936591246903683,-0.7297981845300339,-0.9237420755377642,-0.26177320691661865,-0.7767968984048658,-0.45971956942442,-0.5178418246724411,-0.5314555137775965,undefined,1491593067666
903d185fccf839df,-0.6681403217733052,-0.598058600087377,0.6363303441645043,0.6305000408318581,-1.1033684898090388,-1.9501426340888808,1.9410537936940682,-0.7874989217276007,-0.29570985840419717,-0.4192298406743361,0.16169500770319975,0.04437433731793505,-0.9697317847593583,-0.6900850759368139,-0.8918113413182172,-0.2413092925805424,-0.9231562379125164,-0.7272143445007211,-0.8881842828827049,-0.17523394135451886,-0.7474600710047928,-0.4684999025113872,-0.5144788538167749,-0.5206591258612452,undefined,1491593069102
903d185fccf839df,-0.4491499446119384,-0.7148746577835139,0.7109774820447406,0.6771373516425324,-1.0535034292341963,-1.9594619197116223,1.96543735864456,-0.6345169553796837,-0.276890799650882,-0.18937153160537354,0.12884538493424186,0.08532769272767064,-0.6172292780748664,-0.6919367323538417,-0.8265481204619048,-0.10996974554698645,-0.9095842809580098,-0.7157073869960632,-0.8553202624579858,-0.07765399070360253,-0.7172512226747271,-0.45078591274109925,-0.43371661567530556,-0.5096306080734248,undefined,1491593070628
903d185fccf839df,-0.336882798445643,-0.7189837773843598,0.7594663037208265,0.7817348519340583,-0.9374499123558867,-1.9799475783576987,1.9793648114058124,-0.535785426048212,-0.24589003283744623,0.0958240516928602,0.13808508495730148,0.01118962776910882,-0.7651932932263815,-0.6641617306891305,-0.883390285787375,0.02136971669240489,-0.8608172732822762,-0.6952203139560867,-0.8771643053665634,0.042885039697973755,-0.6969845882605384,-0.43646759296420745,-0.3880817649194523,-0.4736845497806436,undefined,1491593072118
903d185fccf839df,-0.1927372429041561,-0.7389423165484793,0.6057058252111869,0.685291544694458,-0.7496742236466735,-2.0144436113436113,1.9946781616884703,-0.4245236391923111,-0.2568098728454648,0.10786669989425048,0.14401110292569075,0.04421898099921935,-0.9958430815508021,-0.6697167128909883,-0.9265482303535514,0.003184251385502018,-0.883564173449635,-0.7232942535603354,-0.8975809992355568,0.026300914854297853,-0.7225601541157851,-0.44128679923060027,-0.39251340854740857,-0.46689397901530316,undefined,1491593073603
903d185fccf839df,-0.13729671097552598,-0.7336591815653868,0.6401581548967196,0.6911282864030294,-0.5388791505368187,-2.0170290664867374,2.011101303698093,-0.26409939723536635,-0.19664954363826742,0.11129349630238636,0.17336049252761804,-0.0048419981582827135,-1.0393619095365418,-0.6752717080436208,-0.9928641107595956,0.04359641535510054,-0.9242829989757186,-0.7273853356686939,-0.9249735146496683,0.12009284492333294,-0.7189830192149479,-0.44932997307938105,-0.4018603103096491,-0.46030709954802446,undefined,1491593075104
903d185fccf839df,-0.01394145842350457,-0.7700541406769051,0.7333079875166759,0.7486679176366859,-0.40048509842662594,-2.0081569941070367,1.97314532045292,-0.47234158407755883,-0.26868284339169274,0.41759517399670476,0.1472389946182375,-0.08015203282990604,-0.8043602384135473,-0.6910108879568596,-1.0318115275603508,-0.019042390747750555,-0.9623100815534485,-0.7293295484474932,-0.9561233168010934,0.14502292657962987,-0.7302020966375933,-0.44431942796975404,-0.4257634994474401,-0.4673217559205934,undefined,1491593076620
903d185fccf839df,-0.029187604703877844,-0.8481272231110267,0.49213964662235227,0.6394693128641803,-0.4055970934296759,-2.0173411845374,1.9558648667042364,-0.5938435895388029,-0.278682484694065,0.4531679984084524,0.16010672733385128,0.0016499761682916528,-0.673803754456328,-0.6613842169243461,-1.0202325670026506,-0.01904236248302902,-0.9298750726228573,-0.71361118064011,-0.9703828169579185,0.12475857328775368,-0.7319230429577346,-0.4363245755436862,-0.44789675965505593,-0.4396551054782475,undefined,1491593078109
903d185fccf839df,0.033182993715831006,-0.8909793472018803,0.3090304166455008,0.3892988566827041,-0.38786454831446515,-2.045375907799784,1.937850697265435,-0.7207994512301197,-0.3552751354586443,0.2396270151313941,0.14717966361617116,0.0031921788505861735,-0.5650066844919787,-0.6502742007175322,-1.0433904807558172,-0.09178428024008359,-0.9591941582237097,-0.7053023585076884,-0.9916391292882378,0.07120278154681012,-0.7413344108428283,-0.4534795632132104,-0.5107503469511108,-0.474891097282369,undefined,1491593079613
903d185fccf839df,0.2743496181540595,-0.8357999081504776,0.3243426761221595,0.3690668933641462,-0.48437523626649875,-2.0259174437425598,1.91972344261137,-0.8401595989637226,-0.37660384905602245,0.11978405946434886,0.16351420812234438,0.10748896845516694,-0.49102467691622104,-0.6586067355364981,-1.0549694486757513,-0.11401097890277923,-0.9391158451947558,-0.6735996423036376,-1.0018124922417555,0.06184052667508112,-0.7341804529899413,-0.4519625753972977,-0.5374643450222057,-0.43632270929263994,undefined,1491593081182
903d185fccf839df,0.2771217137613105,-0.77533730488799,0.4481165194215344,0.45815279714230595,-0.5636985375246523,-2.0087975346387057,1.8730101981194296,-1.1610995504124777,-0.36263087494089385,0.2933914505317606,0.16702847832796253,0.007206244612260373,-0.8348234180035651,-0.6576808846641288,-1.026548369694133,-0.13219647247440364,-0.9163368837685367,-0.6627956396813136,-0.9879378167014992,0.06867743591474,-0.7259921683347268,-0.4329414325001577,-0.5110376743202105,-0.40676465114973415,undefined,1491593082600
903d185fccf839df,0.13159014492160784,-0.7330721811812616,0.5163840574603952,0.504591278155623,-0.6046253267188951,-1.984366144917949,1.8938934815657862,-1.017124467779248,-0.32206895166978405,0.27967994795592127,0.1674102615230679,0.006682084937429196,-0.9001016599821747,-0.6289800386024355,-1.0139167348622333,-0.041269061145724664,-0.8855992366256201,-0.6278567891639922,-0.9745319268354543,0.09216006526071385,-0.6971014600387776,-0.4274780952879249,-0.49238717226765305,-0.3827790823856,undefined,1491593085757
903d185fccf839df,0.22999715810574572,-0.7330721665672654,0.837941760607177,0.8979196981083815,-0.4366804665390578,-1.9877039438994273,1.9175459580108192,-0.8193581551762876,-0.29347863934313,0.8064449810874966,0.17439919058775372,0.010234930767332043,-0.8261196524064172,-0.5104733156200577,-0.978127259899505,-0.010960008830329618,-0.8621225418869611,-0.575679666964483,-0.9414999831393239,0.1301788269195098,-0.6565919224604033,-0.3725369296701813,-0.4234223038335557,-0.33451561604350316,undefined,1491593087119
903d185fccf839df,0.10386987895729279,-0.74187737692509,0.7256516036413971,0.7368573018960757,-0.2807287306944884,-2.0023502017648327,1.9541870510469084,-0.5334234719704463,-0.2794516227247842,0.6007557232534956,0.15915197023479405,-0.020630437621461935,-0.504080325311943,-0.6539775459285241,-0.948653514005921,-0.0028775986481871427,-0.8658914427476214,-0.6238480368903163,-0.9330758228743898,0.12312634027826615,-0.6785661234125236,-0.3772891754208745,-0.43053122191142784,-0.32143603887877376,undefined,1491593088613
903d185fccf839df,0.3727567348544266,-0.8293426993291538,0.8034889226477455,0.7604751020694777,-0.22061912085062865,-2.014928093753284,1.9259245244162562,-0.7331163175581842,-0.24458552478823942,0.6332173859147138,0.18535069822008743,0.06076830416686396,-0.7347301136363636,-0.6586067225857235,-0.9391798283742822,0.061781965456168014,-0.8513816989645054,-0.6002514886154738,-0.9326979947934304,0.1164896099947459,-0.6687806077621036,-0.359468127728522,-0.42259675032808003,-0.30473434651148856,undefined,1491593090104
903d185fccf839df,0.1537662886822404,-0.7900126798410246,0.6325020251583902,0.5283979513880996,-0.3695663026314644,-2.025460913654998,1.9440701840282402,-0.6743388274671234,-0.24497957572263904,0.1261383612894603,0.1800736341515161,-0.028042623270658453,-0.6476924576648841,-0.6937884081970314,-0.9254956076149883,0.06582314228251772,-0.8609471608263531,-0.6102258750568562,-0.9159266386449043,0.03389235264609542,-0.6799554189552027,-0.3740225692436927,-0.4824701705647771,-0.3281243722853157,undefined,1491593091621
903d185fccf839df,-0.10264644753095166,-0.8228855781918071,0.6784388035883663,0.7096889508265126,-0.47316383892980685,-2.0163792094186053,1.9342347023138555,-0.783846787663538,-0.26949906284171044,0.11182859718549497,0.19789297781943446,-0.004981340575391152,-0.7216744652406417,-0.7132309397966493,-0.9444430009649676,0.09209107430100613,-0.8985394031127792,-0.6081043397222098,-0.9175009210860396,0.04427090283062168,-0.6812327151560232,-0.36463445928766575,-0.494410110354826,-0.29044286386057844,undefined,1491593093113
903d185fccf839df,-0.20243933599166636,-0.740116346544722,0.5393521925384338,0.6056707268901458,-0.574724806210271,-1.997875732347097,1.9176616683156977,-0.9193097358094349,-0.23768757124169967,0.3188646536123285,0.21910753504742533,-0.038442678909048275,-0.6433405748663101,-0.7373025703488195,-0.942337740763374,-0.03318667922830373,-0.9358018704334814,-0.6448417458175872,-0.9389251555499967,-0.08324362555247893,-0.7255815519329423,-0.41138269105492203,-0.537179613791755,-0.33604399987498074,undefined,1491593094603
903d185fccf839df,-0.1899652163077246,-0.7242669269814485,0.4206824357312784,0.45615825397022974,-0.4576941401732384,-1.9889570749293444,1.9213881024424881,-0.834158237709171,-0.18867416067576595,0.460070170538888,0.27905433012196773,-0.06412381938119721,-0.7303782308377896,-0.7354509074564045,-0.9191798122857399,-0.01904244727719363,-0.9520207210932247,-0.6224357922828943,-0.8934948628029996,-0.005851041566527954,-0.6847010955169619,-0.4213800645141307,-0.5216499798169253,-0.32815765440828926,undefined,1491593096182
903d185fccf839df,-0.09848826961466546,-0.6866979086456949,0.2681972164338455,0.3895264200407044,-0.508988908297298,-1.9779886870651122,1.9552836754249228,-0.600897972613127,-0.13852012169276118,0.4830084774146719,0.299889745443548,-0.03119793918824786,-0.8913978943850268,-0.7224892542587246,-0.9276008457298806,-0.04733093944413536,-0.9705756609901539,-0.6188006829442713,-0.8670119339528636,0.04564135801343237,-0.6699656001625328,-0.41047881463966185,-0.454619284875216,-0.32077807394317964,undefined,1491593097632
903d185fccf839df,0.013778945562449414,-0.7600748857088415,0.4232344789773882,0.4098794979898978,-0.4240290549366358,-1.987419776739312,1.9953961048429378,-0.3046140441077202,-0.2442828300021134,0.3724123623031523,0.2580063031540508,-0.05437355635578872,-0.8696384803921569,-0.71230508892428,-0.8844429232504056,0.03551400517295806,-0.9577307834648022,-0.6453800466779555,-0.8408298677502105,0.12408103725901734,-0.6571915543093487,-0.42501884667500833,-0.4655815547335696,-0.3283639288393337,undefined,1491593099099
903d185fccf839df,-0.005625240612571118,-0.787664605234543,0.6057058252111869,0.6906921550055993,-0.5412654357066438,-1.9900075620091344,1.994854372662079,-0.3577258759462237,-0.26409541830350375,0.34075304459596456,0.22691343843214934,-0.060626966321787025,-0.7782489416221035,-0.6613842233997334,-0.8907587406663555,0.10825592293001263,-0.9415678416410234,-0.6386797918520248,-0.8140880564327408,0.1563715765117548,-0.6405355360101782,-0.38196643219434356,-0.39277820376739,-0.3183651905861117,undefined,1491593100608
903d185fccf839df,0.038727184930332954,-0.7935347844437491,0.7843488524388715,0.8567309872424123,-0.4659741355816259,-1.9864298506312097,1.9499399158343156,-0.6195101963180116,-0.28930708545970296,0.4617275072924291,0.20523468258391328,-0.08626928657627395,-0.7695451760249554,-0.5826883238335392,-0.8718113105052073,-0.04328976261778566,-0.9695947670044108,-0.5693593877681328,-0.8096031004344595,0.13151848891356321,-0.6082297872841662,-0.4347415705795871,-0.45475250064379025,-0.35506041486187334,undefined,1491593102103
903d185fccf839df,0.38523071651672947,-0.7882516348466605,0.9151409417335231,0.9944808125639906,-0.3912691197976995,-1.964118068311485,1.9214801555151728,-0.7624050598355622,-0.2617231901725373,0.5111318084219464,0.2354181484205644,-0.013121508384438756,-0.8391753008021391,-0.547506651173006,-0.8623376322358022,0.05167891033140762,-0.9404667697286566,-0.5271819817306124,-0.7922789969974257,0.228051343349022,-0.5680745866269279,-0.4493941413341156,-0.42166953365813614,-0.321545241820724,undefined,1491593103623
903d185fccf839df,0.7137161442371406,-0.7759243198861113,1.1090967367117652,1.1990793187293447,-0.2539344907394941,-1.9543143008408237,1.9078314556359366,-0.8047675830972789,-0.24326721391994346,1.0418607213163165,0.2435583866847162,0.09016295984477085,-0.6999150512477719,-0.5308416462889469,-0.8276007579249355,0.20928630458928738,-0.8878268532399358,-0.48043852365603906,-0.7708827491040985,0.29223206334987806,-0.5232666858928089,-0.42683935699145603,-0.42387356955244077,-0.3121934504776202,undefined,1491593105117
903d185fccf839df,0.5986770059798234,-0.750095630740778,1.0484855825481834,1.0895245647061478,-0.3426691999765932,-1.9657718279985112,1.860739522587796,-1.1607650627503103,-0.2017161054581212,0.8620720399915607,0.20171684800581388,0.05619758835932172,-0.47361714572192515,-0.43270324102468377,-0.8381270736573713,0.24565717867365006,-0.8586505854603941,-0.441585914898396,-0.7805873252395142,0.42629092816671604,-0.4837903328921188,-0.4195965719618626,-0.40285123333431494,-0.3185065098319333,undefined,1491593106613
903d185fccf839df,0.39354700333848236,-0.7459865111399321,1.00829052021653,1.0574613379291324,-0.3384109221268557,-1.943730236792009,1.9040524264873944,-0.8638814909983428,-0.1244266068024353,0.9139303791661754,0.2933698324345327,0.13329118332714066,-0.7826008244206774,-0.3558590561540028,-0.8318112636036552,0.31839909643070463,-0.740753073526796,-0.3286695302876605,-0.7979464135383835,0.5027442115307043,-0.4219903011062483,-0.4069967149580278,-0.36834966902929595,-0.3008510186590108,undefined,1491593108126
903d185fccf839df,0.19673283894856766,-0.7354202119457548,0.8487878173346688,1.041199915432172,-0.3749662865008174,-1.940366815192896,1.905398877480607,-0.8532784062328485,-0.19783247228537185,0.6661936106533751,0.2705379525900966,0.020815863308509625,-0.8174158868092692,-0.4521457467227527,-0.8454954917251828,0.3224403297864974,-0.7602287621809942,-0.3904853948182633,-0.8018016562702621,0.5038375014670239,-0.45742803498618057,-0.39198408644239197,-0.3502855066413237,-0.3095928480953771,undefined,1491593109603
903d185fccf839df,0.2022768231306112,-0.745399525369803,0.9087608336182487,0.9868685123329052,-0.3261195069820147,-1.9397658717909012,1.9316548509744749,-0.6710870332529844,-0.14586885441527112,0.6668211528303902,0.280032284846456,0.028999126000993945,-0.865286597593583,-0.47899495579358004,-0.8518113017788989,0.33456397332443266,-0.7713924590790078,-0.44677893124965035,-0.8342528655016658,0.4056570140688525,-0.5116423647425905,-0.3510793722334482,-0.32509330757583416,-0.3286865627691438,undefined,1491593111108
903d185fccf839df,0.16901250397343315,-0.7718151710572732,0.6707826738500369,0.8432915153784618,-0.3561434523741941,-1.9502125102578858,1.9086992771611562,-0.8461766365607545,-0.17494058591476483,0.42508716253276824,0.2502218547735105,-0.0008675670836426946,-0.8913978943850268,-0.4854757694416454,-0.874969230256533,0.02743151019665098,-0.8213286421645413,-0.5000009907283424,-0.8419563538853954,0.34443279676490435,-0.5522674690009572,-0.38846232487562515,-0.3610253612418733,-0.3485655266340614,undefined,1491593112667
903d185fccf839df,0.13159007591078836,-0.7383552869363618,0.792004982177201,0.8507283200990985,-0.38306112391448904,-1.9305141341983478,2.0052526103197263,-0.20630623901742226,-0.12223362004155029,0.30959287604297475,0.24164551129899067,-0.05719710731058465,-0.9131573083778967,-0.5613941293415061,-0.8665481526389894,0.013287278245540879,-0.8260825188332257,-0.5126668775848263,-0.8295160243240581,0.321319731698194,-0.5558883953993609,-0.3993883779065979,-0.3940867366261843,-0.35153126106033394,undefined,1491593114109
903d185fccf839df,0.15376635769305988,-0.6596952187321111,0.7983848361555259,0.8738307918687307,-0.625927005497619,-1.93159723062447,2.020005836033868,-0.15357112627079886,-0.19408591576196177,-0.06445377365354238,0.21314166052554975,0.03467521132020326,-0.9871393159536542,-0.6021308683839318,-0.8886534510158267,0.013287334774983952,-0.8312953158844241,-0.6080346772310251,-0.8281656395985281,0.21630232974275151,-0.6142717321828687,-0.4127004751277874,-0.5115332431364527,-0.4089060154508377,undefined,1491593115622
903d185fccf839df,-0.09017229334160015,-0.5810351212998682,0.9438513011837834,0.9261576086394384,-0.8853014351366132,-1.8955545839540229,2.0342094082073463,-0.0579331716695167,-0.2707990113111582,-0.43570847251719697,0.06965852722390972,-0.05097487201350267,-0.8000083556149733,-0.6086116820319971,-0.8654955519871278,-0.033186622698860656,-0.8210921085115622,-0.6365329249530621,-0.8240725061899336,0.14904191804095018,-0.6266692450292705,-0.4281096672764548,-0.5475669050546869,-0.4257428109877577,undefined,1491593117099
903d185fccf839df,-0.45746605890664266,-0.4988529923348816,0.8475115415746645,0.8004853179075427,-1.1170999010488774,-1.8208442366142974,1.9861602225083517,-0.3174847153687457,-0.32262864427079324,-0.4508774651755908,-0.07253578198362227,-0.0017420553922056546,-0.6041736296791445,-0.5928725021187583,-0.8633902696988328,-0.10592856872063676,-0.8582656184698729,-0.6087376344719789,-0.8276478766947251,0.06518198461165468,-0.6270347612726789,-0.4547927121154626,-0.6050575563834606,-0.4208301340318339,undefined,1491593118584
903d185fccf839df,-0.4061836013780696,-0.5270296537887236,0.8628240551882725,0.8035240893426904,-1.0820256736855793,-1.7972630198817088,1.945663827119339,-0.5575903902379252,-0.29050141289939235,-0.446307647933621,-0.10947693106202529,0.014177566545536603,-0.6259330436720143,-0.6400900418584748,-0.8876008135527961,-0.09986674695166912,-0.8381778943169071,-0.6439488011134216,-0.8641222514889902,-0.016937925882290702,-0.6678920403435703,-0.46158623717605013,-0.6577382443373306,-0.4564120797960055,undefined,1491593120114
903d185fccf839df,-0.5087486199514449,-0.5422921606518489,0.6841807738236385,0.7559285019790836,-1.0708039759100092,-1.8090023846191652,1.9358309830648315,-0.6424941265415716,-0.252007740720793,-0.4058579313250726,-0.05428247857202769,0.011894530949153978,-0.7564895276292335,-0.6400900418584748,-0.8749692081698315,-0.14027888265654612,-0.8349074857277213,-0.6487491728859647,-0.8804038301726868,-0.0690770623922763,-0.6830802600406751,-0.46188918400483464,-0.6684241831287666,-0.4569410250646829,undefined,1491593125102
903d185fccf839df,-0.5059766278604232,-0.5557934617666523,0.7333077333797265,0.7860043627014713,-1.052073719280353,-1.8957316067334808,1.9146847182245887,-0.8974861417943975,-0.26169028919961396,-0.507642779297048,0.08048622883608923,0.06642183210248705,-0.8304715352049912,-0.6623100742721028,-0.9076008590902735,-0.3019274820054971,-0.909768134352592,-0.6608007650030215,-0.9104411395721149,-0.22024360097498877,-0.7311314884811008,-0.4558387911184817,-0.6742019926331301,-0.47987991087718423,undefined,1491593126109
903d185fccf839df,-0.5586452022034413,-0.698438237836115,0.6312262576722847,0.7112060144428768,-1.1475764167346514,-1.9953904348405282,1.9345239817423787,-0.8950408285838749,-0.21006898739410135,-0.38052843221348825,0.15144856937248616,-0.04704261788186421,-0.8304715352049912,-0.6919367453046162,-0.9076008296413384,-0.4595349186604592,-0.9182140397950519,-0.6760948225000967,-0.9418218362744903,-0.3675913213445001,-0.7737792524492317,-0.48473102116643174,-0.7006406016478057,-0.4694279210488152,undefined,1491593127631
903d185fccf839df,-0.6140857341320713,-0.764183961467699,0.6312262576722847,0.7083530580746388,-1.1491295561812502,-2.0324393128041636,1.909193700115236,-1.1081215615043223,-0.23483231398416676,-0.2892445772637477,0.22691642843343643,-0.050081181871768056,-0.6520443404634582,-0.7011950856682406,-0.9476008839051242,-0.5322767657557099,-0.970044846625349,-0.6895143290562303,-0.9580054594407529,-0.4340048163658615,-0.8044168264815037,-0.4506948776093412,-0.6738360964420947,-0.4671184013459564,undefined,1491593129185
903d185fccf839df,-0.6792284971698507,-0.8305167439393927,0.5718908709948082,0.568809109078203,-1.170935233374666,-2.0538822889282446,1.9399466511497214,-0.9259250911947212,-0.2508740750778292,-0.2845542034711617,0.2492559093312586,-0.06497979411067079,-0.6302849264705882,-0.7086017372379008,-0.9570745842612307,-0.5403592465996562,-0.9826585016745741,-0.7116606331348267,-0.957214820282702,-0.4582419693367689,-0.8197375354505491,-0.45150135365038485,-0.6586257631674063,-0.45566067988518,undefined,1491593130697
903d185fccf839df,-0.7180369040253014,-0.7712281999011402,0.6407965469136712,0.6166207636173029,-1.153387832354551,-2.0349572204919917,1.912570366715035,-1.0896408340671835,-0.26410946894436876,-0.4822029054718694,0.15787201830554703,-0.010703538753746907,-0.7956564728163993,-0.7373025832995941,-0.9707588197449921,-0.6151216821080818,-1.0075385016561793,-0.7418117779828898,-0.9636658796540817,-0.5795663202407088,-0.8516078499507493,-0.44938837720826064,-0.6541972535962155,-0.4789453572885565,undefined,1491593132111
903d185fccf839df,-0.6279459016196386,-0.7037213582052113,0.6554704143733782,0.6232744067145636,-1.0575971330605705,-2.024200793831943,1.8880027134270447,-1.2256604359365257,-0.1795140196201251,-0.34595670386742694,0.2176380723885674,-0.0080216851420504,-0.8000083556149733,-0.7484126124571826,-0.977074600349773,-0.5888538490161187,-1.0377414320103528,-0.7410644909224009,-0.9580614348392084,-0.5725908214245213,-0.8511329357070265,-0.43740190185973526,-0.6322800725609529,-0.46387698625641804,undefined,1491593133595
903d185fccf839df,-0.5032045667585819,-0.7641840053096874,0.6956649684311326,0.662325165885312,-1.033281747846304,-2.0126920231618453,1.9049202542977453,-1.100273105839776,-0.18505094522487656,-0.44337406930049883,0.23295210065876493,0.04002067178292375,-0.7738970588235294,-0.7511901132711925,-0.9697061970064291,-0.5039882735887682,-1.0192216951176665,-0.7353078444718616,-0.9572288146140345,-0.5428872190816498,-0.8464130976200196,-0.42492152599711036,-0.6216480565462464,-0.45813615070480784,undefined,1491593135127
903d185fccf839df,-0.3881654285012648,-0.7665320506881769,0.7122535036677955,0.7280285621406872,-1.0281389019557545,-2.0083759428381494,1.9348500773718704,-0.8987018205787048,-0.14206151585395507,-0.23298506879231,0.3346255450993815,-0.03262822804858293,-0.9436204879679144,-0.72248924130795,-0.9781272451750374,-0.508029506944561,-1.0261241902087883,-0.7014075973598858,-0.9413180670658453,-0.5320467142548159,-0.8211722909942182,-0.4219964232355871,-0.6278456438607478,-0.46698010308007065,undefined,1491593136597
903d185fccf839df,-0.49904656136934444,-0.7829684852495719,0.6637649361286592,0.6458671131492199,-0.9887241152414724,-2.007136787296997,1.9572349854048605,-0.7443477358893287,-0.2167889312971404,-0.2461629569750741,0.24194712886173977,-0.033889786361385454,-0.8826941287878788,-0.6623100483705536,-0.96233776421415,-0.41104035864107896,-0.9770248508387688,-0.6595785035291387,-0.9534085558631346,-0.4595816277767726,-0.7932739412034644,-0.4340483807133202,-0.5883766556499394,-0.474700682340869,undefined,1491593138101
903d185fccf839df,-0.5420130426248522,-0.7524436761192673,0.6624886603686548,0.6462791762325247,-1.1028644946752013,-1.987666676752387,1.9587497563900078,-0.738484071778612,-0.23298116123076212,-0.21692429373083308,0.14909858069166854,0.037105258014394286,-0.7782489416221035,-0.6724942266557727,-0.9549693093351695,-0.4191227829555822,-1.0094375969459712,-0.6649551731431044,-0.9504908857459115,-0.46021296452471355,-0.7984269916647772,-0.419400271378898,-0.5913215844196389,-0.4915993073805064,undefined,1491593139634
903d185fccf839df,-0.6515081621947161,-0.7090045224162962,0.31413450313772034,0.3470066320577737,-1.221448292416816,-1.9728666910484285,1.9629626994437248,-0.7163654919330003,-0.31718877747824575,-0.3652170566275185,0.05573031566005702,-0.0160668439851718,-0.6389886920677362,-0.7243409042003651,-0.9539166939588403,-0.43326702903905306,-1.0090347763660612,-0.6768231101149834,-0.9691933612926742,-0.47020655789448373,-0.8144821123165107,-0.4174760173025456,-0.6019867039211484,-0.4901495124806318,undefined,1491593141109
903d185fccf839df,-0.7568452418699327,-0.7817944844813214,0.19801628130277593,0.17439690275689576,-1.330970392009785,-1.9701764199887348,1.9408197280917816,-0.8827208418467842,-0.3221963758442696,-0.4823676432528444,0.031147767496936044,-0.025184795855135254,-0.7086188168449198,-0.7391542850443328,-0.9939167555848599,-0.5241943555735674,-1.0035850185624582,-0.6985451064744312,-0.9941369918783994,-0.5374207727656299,-0.8443685609837006,-0.4252649555979404,-0.5987237727137152,-0.5014783567265082,undefined,1491593142623
903d185fccf839df,-0.8261459757915398,-0.6162560504151438,-0.09227927328458514,-0.15178672702849139,-1.4443290562680169,-1.8197029089073724,1.8936725665521001,-1.0038324458920784,-0.2874523977102167,-0.6196057585090022,-0.006561349144853317,0.007047122380726,-0.8913978943850268,-0.7224892607341119,-1.037074678064335,-0.5605653427168162,-0.9723577093790721,-0.7604116334748033,-1.0187167884025277,-0.5875427144164682,-0.8869672061018345,-0.41351445991689717,-0.6015024984038945,-0.5102946964104019,undefined,1491593144213
903d185fccf839df,-0.7693193960592842,-0.22765168323890023,-0.42276912779275116,-0.3820346385892063,-1.3803005934938863,-1.595150273369764,1.8729523267304027,-0.7486188547961669,-0.207778902784195,-0.6564128358233916,-0.009300143203644336,0.10458698073498388,-0.865286597593583,-0.8104434618116068,-1.0528641811119237,-0.5423798774099133,-0.9581695506103356,-0.835931988328139,-1.027231907172156,-0.5328936321334012,-0.9178144650105328,-0.44303641376682923,-0.6820874511254008,-0.4554182953068687,undefined,1491593145600
903d185fccf839df,-0.7429851261404801,-0.09498635211945135,-0.575891722559338,-0.7608754746190122,-1.4004605624820123,-1.1690509002578369,1.7155295102261945,-0.787233936416075,-0.3122638724960991,-0.6790915805254356,-0.03985264463613612,-0.005596508081404811,-0.8609347147950089,-0.7808167940167868,-1.0539168112127206,-0.22514438035591247,-0.8336132140288148,-0.8515490276026875,-0.9755954419969534,-0.3266006607915556,-0.8706712992594566,-0.3570361076674856,-0.4922731697573202,-0.15428486597343868,undefined,1491593147084
903d185fccf839df,-1.1435433661370444,-0.6679134579338029,-0.8176979471967144,-0.9939584446358458,-1.5828773996613048,-1.0022028341759925,1.6432992727750402,-0.8206516805852709,-0.32933405813557814,-0.6617306882911692,-0.006718969863661745,0.0337293156717992,-0.8826941287878788,-0.8058142916297946,-1.0465483710582077,-0.28778329245146933,-0.8073401470771191,-0.915144448055351,-0.9996574742164714,-0.40459378536151963,-0.9229273432307004,-0.3404933735901002,-0.4438757480539816,-0.1259993339538854,undefined,1491593148574
903d185fccf839df,-1.1851238168416316,-0.8604546111415566,-0.9299878500255447,-1.0402344035667106,-1.7703650854465534,-0.9289901817345604,1.6125226550806644,-0.8740902402674394,-0.2947435933823383,-0.6748234354071182,0.0719781047274892,0.010052912236435646,-0.7651932932263815,-0.9113593614144925,-1.0833905350196031,-0.5019676922417737,-0.8299410821556358,-0.9796834769387726,-1.0252658020862804,-0.5502168836374182,-0.9912707393672268,-0.3243692611093575,-0.38188587701130805,-0.08400348037912933,undefined,1491593150107
903d185fccf839df,-1.1407713222879081,-1.0694321842967094,-0.9497663122513702,-1.0347985271405273,-1.6473070056682089,-0.9977353474948851,1.6400304370211853,-0.9245472225202934,-0.2700832307537157,-0.6799073738415943,0.07365051143350367,-0.0022846617086743986,-0.7956564728163993,-0.9335793808773458,-0.9928641070784787,-0.7686879278043334,-0.9010875502547393,-0.9939579320485172,-1.012314705074029,-0.7014296177180174,-1.01647609515458,-0.31567009212224534,-0.3918888557111312,-0.1367564577311522,undefined,1491593151625
903d185fccf839df,-1.0368202559109072,-0.46187084285728786,-0.7424129255734253,-1.031001215809607,-1.6346247415858726,-1.198322442614053,1.7263064772933912,-0.9119386902757506,-0.2236905395384935,-0.711747236145959,0.0026547705018855187,-0.08649752667077497,-0.6563962232620321,-1.0317177731908345,-1.1612853502155291,-1.0980470118668264,-1.187370305187593,-1.0984768341956777,-1.1168680503773571,-1.129275423069933,-1.1792231497694672,-0.4250392433138047,-0.6493553818838795,-0.5058842676657729,undefined,1491593153106
