UUID,iqrAccX,iqrAccY,iqrAccZ,iqrAccXYZ,meanAccX,meanAccY,meanAccZ,meanAccXYZ, covarianceAccXY, covarianceAccXZ, covarianceAccYZ,pressureDerivative, pressureIQR, iqrGyroX, iqrGyroY, iqrGyroZ, iqrGyroMagnitude, meanGyroX, meanGyroY, meanGyroZ, meanGyroMagnitude, covarianceGyroXY, covarianceGyroXZ, covarianceGyroYZ, class, timestamp 
903d185fccf839df,-1.312637161046415,-1.1386998956190484,-0.9867711934569114,-1.051891154754348,-0.18686425901676978,-1.8232926888355345,1.9005323289182545,-0.871449793423225,-0.28191661913640925,-0.6838745412138191,0.09178828138972922,0.2737969839757304,-0.7608414104278075,-1.1863320245626552,-1.3433908472419256,-1.2637368463381153,-1.3994810412262215,-1.2295224889482208,-1.3252083203753273,-1.3551670646554548,-1.3609475739848171,-0.47669106990928445,-0.6731864953714077,-0.5295676803195654,undefined,1489864421216
903d185fccf839df,-1.312637161046415,-1.1375258656228056,-0.9925131636921838,-1.0633944628591754,-0.17659577990790243,-1.825745077437023,1.8957137326758575,-0.9028110953748065,-0.2827883156123023,-0.6823335312729346,0.09186717709375375,-0.1022391018189534,-0.7086188168449198,-1.1928128624934229,-1.3423382153005703,-1.267778060261912,-1.4041302059106278,-1.2313736571304952,-1.3239396679411186,-1.3575529775572293,-1.3618056553088864,-0.47669306456485794,-0.6734072643219158,-0.529574881047625,undefined,1489864421767
903d185fccf839df,-1.3230322607830332,-1.1363518356265627,-0.9883661569514928,-1.058481002072822,-0.2003291584091724,-1.8229856551640342,1.8983448082018541,-0.8887223719804768,-0.283076587217749,-0.6801573144794155,0.09137358917210593,-0.11228529174733544,-0.22991170900178254,-1.192812860874576,-1.3433908472419256,-1.2677780637950022,-1.4060791936566395,-1.2267072775079633,-1.3214223940695602,-1.3474803108324225,-1.3566583868219173,-0.4765963342717248,-0.6734458870822677,-0.5296574789234318,undefined,1489864422747
903d185fccf839df,-1.3209532408357094,-1.1058270557242507,-1.0052733799227327,-1.068965171439304,-0.1869143380137177,-1.8150647283727845,1.8905885881663869,-0.926896727100204,-0.2822597239334321,-0.6806579976635214,0.09071764337127716,0.02430334430082659,-0.4126907865418895,-1.1909611963633142,-1.3412855815186566,-1.2556544167239767,-1.4055568673183858,-1.2206868144821015,-1.3197790640902098,-1.3207204459581323,-1.3492210270529241,-0.4756977302739987,-0.6708384990957037,-0.5274845239934484,undefined,1489864423254
903d185fccf839df,-1.2918469615731787,-1.0846945157918806,-0.9893227284291224,-1.0582621733392956,-0.22427726320770716,-1.8315372108371897,1.8925755164106588,-0.9386036778043739,-0.27816334419007527,-0.6791174190996941,0.0908345334678776,0.029341689474328525,-0.3996351381461676,-1.1789253535668331,-1.3402329495773013,-1.2354483382722676,-1.38221752376883,-1.2115832080583142,-1.3128915781923225,-1.2452921231319896,-1.3272328069184918,-0.47558131557502215,-0.6678156752602976,-0.5233423467279191,undefined,1489864424254
903d185fccf839df,-1.296005001467826,-1.071193112379104,-0.9918747716752322,-1.0608214749183618,-0.2323167079769363,-1.8393151366555358,1.8941993765817535,-0.9382833465089387,-0.27790528762023753,-0.6789616783485561,0.09081522054971275,-0.025786752416576277,-0.5345435049019608,-1.1798511866318875,-1.3391803157953877,-1.223324684135062,-1.3752943464019858,-1.21404672320384,-1.3136323655698883,-1.2396976752440927,-1.3272322031398285,-0.47574272570644294,-0.6685333415842488,-0.5242040460813299,undefined,1489864424739
903d185fccf839df,-1.250959431254175,-1.0650294548988295,-0.994108127186765,-1.060599917582184,-0.27948173383031977,-1.8421774638167168,1.8970419884295537,-0.9342988575945577,-0.27741163212172265,-0.6793986984381704,0.09034388527620739,-0.02064439662848507,-0.6128773952762924,-1.1779995196923554,-1.3370750500721187,-1.1748301029171406,-1.3668126461820937,-1.2123154546277575,-1.3106832100843404,-1.2207749113619561,-1.3218181760311747,-0.4758184296810943,-0.6692703489148832,-0.5243488519133854,undefined,1489864425699
903d185fccf839df,-1.268284597481872,-1.063561917403526,-1.00463549617968,-1.0650239252808937,-0.2769227975950042,-1.8378564041939167,1.8962106869857072,-0.9347092710506807,-0.2775721556616837,-0.6790965492148632,0.09045443770904933,-0.03179601354739098,-0.7129706996434938,-1.1779995172640851,-1.3370750500721187,-1.1546240209323413,-1.3652471201183305,-1.2130439672215512,-1.3095858329431764,-1.2149015304865098,-1.3204315816839767,-0.47586019033022275,-0.6697928995035259,-0.5238156649737657,undefined,1489864426264
903d185fccf839df,-1.262740544289009,-1.0430163924692775,-1.0103769581410533,-1.0701196844205787,-0.2606129602623214,-1.8294668895837467,1.89377074663638,-0.9374124034877105,-0.27721012419160035,-0.6785814933566712,0.09028782981693352,0.0879056006273558,-0.6346368092691622,-1.178925351138563,-1.3370750500721187,-1.205139218828159,-1.3678866225483919,-1.2139656614450416,-1.3100835834700486,-1.2258513940357687,-1.3227998421998652,-0.4758734314338694,-0.6705048053128422,-0.5245456769415716,undefined,1489864427237
903d185fccf839df,-1.273828650674735,-1.0459514674598844,-1.0071875394257896,-1.0720452904265785,-0.25392480454147665,-1.8234891349667275,1.8915697833450769,-0.9431351326148215,-0.27611261638269186,-0.6793502710132611,0.08985564505298672,0.083629920728637,-0.7260263480392157,-1.1779995172640851,-1.3370750500721187,-1.203118609216443,-1.3666003929745827,-1.2133880968916004,-1.308675514120752,-1.2278442950845379,-1.3221579953051956,-0.4751898245961555,-0.6709852533256175,-0.525088716876486,undefined,1489864427746
903d185fccf839df,-1.2634335509381167,-1.0333306450002746,-1.0075062271603668,-1.0727724645398726,-0.2743513758360385,-1.8079293971634838,1.8885562736222326,-0.94836895118933,-0.2813628675862899,-0.6796802955162515,0.0884094268289215,-0.06477458224452114,-0.7913045900178254,-1.1761478543716701,-1.3360224172104842,-1.205139218828159,-1.3640410438016843,-1.2083941183310165,-1.3075254101623823,-1.2374737964170022,-1.3212764147597016,-0.4741366305570944,-0.6716432711647634,-0.5259454049708313,undefined,1489864428713
903d185fccf839df,-1.2613545309907932,-1.0295150475124857,-1.0059112636657854,-1.0714722849350644,-0.2494190659326147,-1.8009991172821556,1.8851835756367563,-0.9531921310449485,-0.27256873888330313,-0.6828026142256447,0.08626681893745686,-0.09095571485765717,-0.7477857620320856,-1.1779995221206256,-1.3286539908601596,-1.1829125413640045,-1.3552426253135934,-1.2058752256559049,-1.3041329062152087,-1.2272913919961426,-1.316380289210927,-0.47382936162127454,-0.6720375173696117,-0.5255063159095038,undefined,1489864429263
903d185fccf839df,-1.2183881187461048,-0.9954681191654604,-0.9995309014135615,-1.0623875938119864,-0.25130134870871135,-1.780909428153334,1.8793191086752168,-0.959921943408101,-0.26085327474196335,-0.6705808423871054,0.08568579963334623,0.013246688535254913,-0.7695451760249554,-1.1631861801289816,-1.322338186328119,-1.1465415930847478,-1.3369951346477764,-1.1951022323615914,-1.2970648204871131,-1.2023480017963541,-1.3054688249281212,-0.47161849210483076,-0.6670609155379255,-0.5213866548074786,undefined,1489864430239
903d185fccf839df,-1.1809657596942795,-0.97609656577147,-0.9854949176969071,-1.0551106758246491,-0.25755505410851703,-1.78207870557475,1.8833821607879198,-0.9316368593611848,-0.25513288605670387,-0.6704266194265204,0.08752834809364751,0.017904391817474833,-0.852230949197861,-1.1576311785009619,-1.3160223909988704,-1.1425003738613158,-1.3158790943975875,-1.1880941888425096,-1.2919423962546899,-1.1946923063857433,-1.2992070220907337,-0.470543324743536,-0.6644909714846122,-0.5215470495693183,undefined,1489864430824
903d185fccf839df,-1.0894887439904009,-0.9443977558729151,-0.9740104689524637,-1.0326042232723596,-0.2761104545666959,-1.7681079278934406,1.876063408844658,-0.9542289367181169,-0.23269714544630873,-0.6877206095843105,0.0850717838364893,-0.09010324115620572,-0.6041736296791445,-1.152076168778708,-1.305496060541967,-1.0859233577296206,-1.3025605505533506,-1.177163658722082,-1.2819188206861507,-1.1395109914609705,-1.2793968929377761,-0.4677868262936927,-0.6578381323554611,-0.5118903425995359,undefined,1489864431719
903d185fccf839df,-1.1033488769725586,-0.9144599909687243,-0.9606128772527609,-1.008233579993164,-0.283001871026325,-1.7716367252980763,1.8899619311490052,-0.8614954522062759,-0.23378283575648529,-0.718267678395194,0.09694724227216238,-0.13651821128216446,-0.5650066844919787,-1.1483728348996438,-1.299180270734394,-1.065717286344092,-1.2771150032894274,-1.1693281591762763,-1.2692139265418179,-1.1136970495257144,-1.266780585178196,-0.4625619884065046,-0.6536180364230152,-0.4992174596254759,undefined,1489864432253
903d185fccf839df,-1.0423642918510654,-0.9050677509987821,-0.9280736905224877,-0.9972389472347697,-0.35594803339087516,-1.7832153736063436,1.8970650360656827,-0.8329678689597428,-0.20728942945290507,-0.7024124566289763,0.08572603813216545,-0.08284556775749025,-0.5345435049019608,-1.1280044961365205,-1.2844434051498357,-0.992975396851759,-1.2185675555791977,-1.1567747598049634,-1.2618391025709266,-1.0631729904528777,-1.2484986369215072,-0.46141136462104665,-0.6486211563931751,-0.4968091488069858,undefined,1489864433207
903d185fccf839df,-1.0132580125885347,-0.9232651574845604,-0.8700150878789144,-0.9356647294845742,-0.3570177433062047,-1.778044462468402,1.8988743408486715,-0.8148976919550772,-0.2050072340695987,-0.6876239549111199,0.08906315549261178,-0.10184871403910524,-0.499728442513369,-1.1039328056870181,-1.2760223422567598,-0.9808517533138237,-1.1866926518270222,-1.1418419807680882,-1.252186317002893,-1.0565707748669408,-1.2369456326469563,-0.45625348590493076,-0.6475274349160834,-0.4913675902960621,undefined,1489864433759
903d185fccf839df,-0.8261460793077691,-0.8592805226893292,-0.8253540769350437,-0.8616283294243068,-0.415831358408021,-1.7806112841997386,1.8896884232086115,-0.8787574179130027,-0.20465191776003017,-0.6772025133732645,0.0829970203724367,-0.07081208354175625,-0.49102467691622104,-1.0835644620673544,-1.265496009959298,-0.9363983630546128,-1.1473043338077489,-1.132494347139999,-1.2356237417668539,-0.999421717906816,-1.2164599861927297,-0.44697067708307936,-0.6390161899469232,-0.46805048618366135,undefined,1489864434732
903d185fccf839df,-0.7610033162699897,-0.8093841893930266,-0.7003039578756645,-0.7848307521765514,-0.38972625654366366,-1.784529064581391,1.8932570659850185,-0.8489916167166814,-0.20167097206575757,-0.6777520898191881,0.08158819593750852,-0.20323830029214848,-0.517135973707665,-1.0733802886386756,-1.2560223169654254,-0.8798213504560077,-1.1251190273407745,-1.1296473068254405,-1.2334254886565499,-0.9654473463700811,-1.2071052594571725,-0.447162511678057,-0.6386666348732888,-0.4662277656552035,undefined,1489864435255
903d185fccf839df,-0.6501221143910907,-0.7342462111775043,-0.5293170603863092,-0.6069818046605266,-0.3746782795097937,-1.7895252837524531,1.8870349405148144,-0.8805701280172177,-0.20628791987949618,-0.6917753034899704,0.07397548853370409,-0.3589326717981279,-0.2908380681818182,-1.0539377829406067,-1.242338094365573,-0.8596152967359301,-1.092582829434341,-1.1212773694467943,-1.2227215166018475,-0.9547422155287743,-1.1980567225949914,-0.44387134203217354,-0.638568977669441,-0.46594928084010573,undefined,1489864436232
903d185fccf839df,-0.5295388194246813,-0.664978382943196,-0.49358845494077225,-0.53049234170775,-0.38226912422426157,-1.7895439171841758,1.8916739180147726,-0.8451072108777254,-0.19006624732479607,-0.6664079601634455,0.07191887158381338,-0.351464336179019,0.3401849376114082,-1.049308609521101,-1.2402328341639794,-0.8616359063476461,-1.0985331815470898,-1.1186345933007098,-1.2200360262707146,-0.9537485443835367,-1.1955195940376813,-0.44432011061535875,-0.6404883472515389,-0.46846297025234596,undefined,1489864436785
903d185fccf839df,-0.48380031157274195,-0.6197782280878491,-0.4457370087338403,-0.4169695439308125,-0.39192739510573843,-1.7841773497362936,1.884899533817203,-0.8766841423519455,-0.19699937752438984,-0.6600747523833719,0.06637748123246427,-0.26580173594544565,1.3933405748663104,-1.0409761070790715,-1.2054959451286453,-0.8252649404029384,-1.0785987597922848,-1.1104397641378712,-1.2098836537559436,-0.9211962306158508,-1.18142926622612,-0.44378438517607227,-0.6436026974341859,-0.4722635136822673,undefined,1489864437729
903d185fccf839df,-0.45746605890664266,-0.5962974820230319,-0.3359991491511198,-0.35809568825327387,-0.3744108516468613,-1.786355188142689,1.8837424213407208,-0.8802390274879475,-0.18606050747045566,-0.6488114451817186,0.06593509763974885,-0.25068462987999973,1.1583389037433156,-1.0317177667154471,-1.1886538202627728,-0.8131413109973639,-1.0760015403090324,-1.104847774937174,-1.2031457250835664,-0.9044735192381282,-1.1740346338620038,-0.44226534728158456,-0.642777403336001,-0.47163557118607824,undefined,1489864438275
903d185fccf839df,-0.4242017397494646,-0.5722298671000551,-0.2843204004858714,-0.24339829049823367,-0.36239715792203847,-1.7761368156572495,1.8884313624876838,-0.8258848759064443,-0.16840474693589474,-0.6294179911292038,0.07611647169799181,-0.13344613093147892,0.5360196635472371,-1.0224594263518227,-1.1760222176406459,-0.756564263067857,-1.0801632912205998,-1.0943730860394012,-1.1927554609867543,-0.8798206079843874,-1.1609286627544149,-0.44134413793116983,-0.6468445246537172,-0.47529349811855703,undefined,1489864439290
903d185fccf839df,-0.4740982184852317,-0.5839701670624828,-0.28240624098281436,-0.28298675640483956,-0.393501105734359,-1.7820041695718543,1.878443360552582,-0.9069655647807027,-0.18122271758692104,-0.633525492519771,0.07408868190389757,-0.16930204309402538,-0.016669451871657744,-1.0141269239097932,-1.1791801171458285,-0.7161521202967996,-1.0798636093744716,-1.0914979295544984,-1.1910412422913832,-0.8627283332428385,-1.1555048991915866,-0.44220994840818706,-0.6474633722270247,-0.4774667176895011,undefined,1489864439859
903d185fccf839df,-0.43944788602983786,-0.5816221070699973,-0.26135201127088337,-0.2204061126010169,-0.3932439638145289,-1.7852092036851706,1.880967973972726,-0.8869861954337838,-0.19576344217026864,-0.657230366425566,0.07308519061031814,-0.005144402321997699,-0.1994485294117647,-1.0067202529139712,-1.1549695659296315,-0.6999872646016128,-1.0756782722110183,-1.0807445911404567,-1.1810288061470724,-0.8422176039218472,-1.1430122390468542,-0.43982760028533957,-0.6450748920398545,-0.4784165622114639,undefined,1489864440731
903d185fccf839df,-0.47548423178344745,-0.608037898897429,-0.24795391129728175,-0.2113009319771752,-0.4317124699461953,-1.7920804596541986,1.8772546883394923,-0.9323225211539533,-0.2187016457876908,-0.6386907382051078,0.07834579924968624,0.13917278641471956,-0.1298184046345811,-0.9900552512676057,-1.1539169303071592,-0.6757399492610208,-1.0783386245002142,-1.0746459664068118,-1.1744238167284256,-0.8316542698879762,-1.136393660046215,-0.4394423179926821,-0.6459495228322589,-0.4789131971849984,undefined,1489864441270
903d185fccf839df,-0.4103416757781265,-0.6121470038842788,-0.23200325980367148,-0.19371402462157103,-0.45811585527821325,-1.7894321149339505,1.8721554926145916,-0.969975704180798,-0.2129406952399441,-0.6170036820914998,0.07736927348935095,0.14228266457747668,-0.6128773952762924,-0.9789452285854046,-1.1381274364623628,-0.5908744162307524,-1.056088245411404,-1.0568250632474407,-1.16198348703863,-0.7764354439925627,-1.1136590516251899,-0.43898039923747656,-0.6302655678107932,-0.47679011803477056,undefined,1489864442218
903d185fccf839df,-0.4740982184852317,-0.6426718130145832,-0.25050595454339153,-0.19792414432608701,-0.41344507346225434,-1.7784124841901858,1.8653311458175383,-0.9954144712756449,-0.23947460324805558,-0.6181026152403352,0.09581734524032955,0.15511375130092273,-0.6389886920677362,-0.9733902366704658,-1.1254958531660995,-0.5807713823045332,-1.0657953217667444,-1.0497954958818057,-1.1547697750064247,-0.752752634855787,-1.1036167606863303,-0.4383967000759279,-0.6317947534861744,-0.4770803011096054,undefined,1489864442765
903d185fccf839df,-0.49766051356571894,-0.6256482611570936,-0.1503378759281585,-0.14526798395230253,-0.3995079554935248,-1.768618033743444,1.8805366872522096,-0.8746192778812152,-0.24580250044994945,-0.6412541878935709,0.09146514389649893,-0.03242128043093148,-0.6433405748663101,-0.9845002334511178,-1.1118116176823383,-0.6171423553154213,-1.071647757019219,-1.0345267686479303,-1.136165254891457,-0.7231260257094333,-1.0846328134511642,-0.43682412363397854,-0.6399365633641207,-0.48631406254099685,undefined,1489864443739
903d185fccf839df,-0.46855423430318816,-0.6156691231009994,-0.13566400846845142,-0.14510783541796973,-0.34296747841894487,-1.7738844437124222,1.8858357501353915,-0.8341751384134724,-0.2550572497410368,-0.6617175357658838,0.09572180239706934,-0.16240443106605199,-0.504080325311943,-0.9854260713727127,-1.1107589839004244,-0.6029980739010484,-1.067788170228025,-1.028548469755569,-1.1285877086019085,-0.7052484307213046,-1.0763746769881182,-0.4341928256732613,-0.640336124423542,-0.4844218803898737,undefined,1489864444268
903d185fccf839df,-0.5018185534603662,-0.585731212056847,0.04297952703313206,-0.036216947187595806,-0.3598051664934449,-1.7691863678788395,1.8796557140908674,-0.874481021870247,-0.23750952947097978,-0.6269738370543809,0.10650128210476723,-0.2262960268063327,-0.1646334670231729,-0.9724643987488709,-1.105495811309739,-0.6272453680430994,-1.055422134110683,-1.00215909359583,-1.1075063178709086,-0.6752984540590311,-1.0503253546072413,-0.4250011692305403,-0.6495913266993442,-0.49678849699605854,undefined,1489864445218
903d185fccf839df,-0.46301018111032516,-0.585731212056847,0.04042748378702228,-0.014095548069826184,-0.3380509165188914,-1.766796568322624,1.886971834659383,-0.8158876022862523,-0.21867561993293855,-0.6267950676614481,0.10624344272709543,-0.22374489903581857,0.7840769830659537,-0.9659835527238692,-1.1002326534435212,-0.6413896141265703,-1.0710256098871065,-0.9941922505604042,-1.0977457666918269,-0.6628257130859913,-1.04125490559267,-0.4273818001820282,-0.6523231124805449,-0.502263331924629,undefined,1489864445814
903d185fccf839df,-0.5655751651782908,-0.6191912130897277,0.0436174107761848,0.00819757958175519,-0.3405194849924325,-1.772647616636265,1.8774361631101155,-0.8932785309420388,-0.22977648030862743,-0.6251933908108734,0.11711453876721663,-0.21505650215536481,1.2149133801247773,-0.9539477244970095,-1.088653692885821,-0.6413896494574721,-1.0749435871930368,-0.985902427220258,-1.0889297848526382,-0.6443167818480272,-1.0306186122388155,-0.42450073355572826,-0.6575869227496445,-0.5074314273739212,undefined,1489864446757
903d185fccf839df,-0.5600311119854278,-0.6191912130897277,0.05127404878841298,0.015109336275389561,-0.356740028299857,-1.7721375132217314,1.8755427025212468,-0.9103483510620165,-0.22434607878963697,-0.617169557735406,0.12099416544821075,-0.2739798398833595,0.9450966466131908,-0.9493185478398101,-1.088653692885821,-0.605018676446584,-1.072530399678877,-0.9813300419848411,-1.0868867160705316,-0.6311511112203115,-1.0248583689152289,-0.42405203381981393,-0.6588997843464305,-0.5083144652150727,undefined,1489864447277
903d185fccf839df,-0.4962745002675032,-0.6009937189199723,0.14442337313447054,0.18702764684864437,-0.32321894454624206,-1.7851113762405455,1.8952215412188627,-0.7865856273731392,-0.24215728105911716,-0.59876132319911,0.11751377529917141,-0.4731874291527964,-0.051484514260249546,-0.9456152091042054,-1.084443161439283,-0.6434102308044666,-1.0611365087307763,-0.9750350958864635,-1.0797709594395362,-0.6232671071248882,-1.019205603215202,-0.4148830256114643,-0.6520777758771914,-0.5016114331829087,undefined,1489864448293
903d185fccf839df,-0.5600311119854278,-0.5769260747690031,0.1425092136314135,0.167066536507744,-0.3386166323786644,-1.7964431252361168,1.8899277421326952,-0.8369665012563048,-0.24336198927652708,-0.6052078357069209,0.10966025935457194,-0.3311053142738008,0.2792585784313726,-0.941911876843988,-1.085495784177846,-0.6131011219596285,-1.0588233959892528,-0.972723571233822,-1.080848468479705,-0.607945653811597,-1.0154858011245307,-0.4153818727370438,-0.6524555030912927,-0.5041167894034586,undefined,1489864448831
903d185fccf839df,-0.4962745002675032,-0.5599026105954906,0.12145498391948252,0.17804787240963485,-0.3165435259779658,-1.8091304910514758,1.89782767907014,-0.7952508718978909,-0.2674242419419155,-0.6076334163445941,0.10883866788003378,-0.18692188184455177,0.1487020944741533,-0.9382085478214643,-1.0876010554227904,-0.6636162915907247,-1.0442034994901883,-0.9667959360237598,-1.0822408339481537,-0.6339998231836184,-1.0191165514950469,-0.4137538545842469,-0.6504913162411614,-0.5025446789111753,undefined,1489864449747
903d185fccf839df,-0.6113137420410496,-0.5769260747690031,0.09593455145838471,0.19928647165562638,-0.32266351590990516,-1.8022266265769329,1.9129806202454513,-0.6951743250698241,-0.24808809408911384,-0.5802940476404643,0.11409406285257477,-0.1041387942659143,-0.016669451871657744,-0.9372827131375632,-1.0844431503959324,-0.6656369082686211,-1.0407871132651425,-0.9701840609520679,-1.0833113459878172,-0.644840328993201,-1.0234599673172782,-0.4127268092491009,-0.6491907407448975,-0.49931957361842144,undefined,1489864450247
903d185fccf839df,-0.6695264385877501,-0.5775130605391322,0.08572587020004675,0.18001282012827569,-0.21125913182039152,-1.8143479874358617,1.8954266627464613,-0.8012656648588754,-0.24435570543539756,-0.5989523085367023,0.10894296080082454,-0.07727997238752654,-0.0036138034759358177,-0.9354310437697608,-1.0823378975565725,-0.6797811755506331,-1.0363591924086415,-0.9704563777738092,-1.0790782750587549,-0.6286103671562573,-1.0209175128635708,-0.4061239559276823,-0.6400782831024532,-0.49468372990878856,undefined,1489864451215
903d185fccf839df,-0.6722983271625427,-0.5798611205316178,0.07105200274033965,0.1733505048083687,-0.13996896289204833,-1.815130611849304,1.8981879626684202,-0.7681140555918705,-0.267063200163872,-0.5851866620388588,0.09790086949171822,-0.13132600855792706,-0.6041736296791445,-0.9372827066621758,-1.0823378901943388,-0.6878636139974971,-1.0338836693995692,-0.9702853880785896,-1.080316710492171,-0.6373720828036665,-1.023323708143014,-0.4043261571486248,-0.639104190491641,-0.4953603440925337,undefined,1489864451753
903d185fccf839df,-0.6307179282160701,-0.5833831812923538,0.04042748378702228,0.06269404757917615,-0.09504103531525893,-1.8293878849799503,1.880155381986569,-0.8881734580946956,-0.24778283413890295,-0.5857646724277155,0.08480474244151175,-0.029183346330176007,-0.7826008244206774,-0.9372827066621758,-1.0770747396903546,-0.7040284767588644,-1.0593173818124137,-0.9692404527870698,-1.0790153037914503,-0.6757758055582329,-1.0308379463643738,-0.40295796166913705,-0.634882197627527,-0.49768969150227893,undefined,1489864452969
903d185fccf839df,-0.6002256356553236,-0.5833831812923538,0.03468551355174999,0.01799337111385557,-0.0834490547589064,-1.8266393826793201,1.8600715556505953,-1.0159241780853272,-0.2500735188931817,-0.5682059402030911,0.09955297078988594,0.05039481059869904,-0.7826008244206774,-0.9391343825053655,-1.0781273697911515,-0.7040284767588644,-1.061277484765695,-0.9704310461762728,-1.0810023980620753,-0.6775620252838513,-1.0320742541167178,-0.4037212458774419,-0.6359862784908585,-0.4993553128598225,undefined,1489864453302
903d185fccf839df,-0.586365640694805,-0.5951234812547815,0.002784718838428309,0.020759401007132684,-0.033686849858110934,-1.8291409856056424,1.876573585478996,-0.89471874096944,-0.2276048437589725,-0.5700606880714113,0.08774053699727298,0.004483973602808995,-0.865286597593583,-0.9363568719782747,-1.0812852674557756,-0.6858429973196007,-1.0629556428864915,-0.9693354469200841,-1.0816740920530457,-0.6473194788850632,-1.026023691370106,-0.40299500370184754,-0.6333665698647523,-0.49337701939421985,undefined,1489864454275
903d185fccf839df,-0.5932957071858838,-0.5827961955222247,-0.041876292105442275,-0.045126590606448545,-0.024265152467159268,-1.839009971765343,1.862512011169815,-0.9948872531287192,-0.23341942807187493,-0.5694344824695996,0.08241207682947209,-0.0012791716506273193,-0.865286597593583,-0.9187660421233954,-1.0739168493879643,-0.6898842024106719,-1.0407871132651425,-0.9603869977198592,-1.0729490690060535,-0.6169229477760283,-1.0138174969021712,-0.3979375844905069,-0.6326745354073524,-0.4935923157444686,undefined,1489864454774
903d185fccf839df,-0.6113138800626885,-0.5781000755372536,-0.02656403262878359,-0.022028811580657302,-0.030765713075492092,-1.8416373535704693,1.890819239745501,-0.8128044106977953,-0.23259575751921857,-0.5922189075390262,0.07538827659897093,0.051212670056250714,-0.8783422459893049,-0.8983976790775698,-1.0739168346634966,-0.6575544910202983,-1.0298257270822784,-0.9505139383994616,-1.0653995102475136,-0.600554400414711,-1.0031768888708517,-0.38842515909757924,-0.6386701379691465,-0.49742256835583654,undefined,1489864455742
903d185fccf839df,-0.6875446114645549,-0.5951234812547815,-0.04506621909460479,-0.05867128382242258,-0.027453720697644016,-1.8322225690369587,1.883087608134686,-0.857765263137008,-0.2636228897939171,-0.5941197460428822,0.07896593546032621,0.02089818146940738,-0.8783422459893049,-0.9076560226788878,-1.0770747433714716,-0.6818017780961687,-1.0298470837832612,-0.9553713061169715,-1.067050757461483,-0.6170153380717612,-1.0081024174267914,-0.3894209943269476,-0.6361192533878894,-0.49675069685978634,undefined,1489864456271
903d185fccf839df,-0.6639823853948871,-0.5628376271301129,-0.16118444092954923,-0.19454692178173977,-0.07262850015409353,-1.8393686752998357,1.8926811353601536,-0.8115745686999163,-0.26357389703102563,-0.6168221963030092,0.07591293632937517,-0.010143596508515956,-0.865286597593583,-0.9122852058114745,-1.0781273771533852,-0.6595751076981946,-1.04472911395929,-0.9581514684411766,-1.0659032804838249,-0.6067599735122329,-1.0076726883237015,-0.3902546805890661,-0.636224081970152,-0.4961880390494925,undefined,1489864457281
903d185fccf839df,-0.6930886646574179,-0.5522713571639278,-0.17522042464620358,-0.2033920060854232,-0.051882250453822026,-1.8345122120783102,1.8995764873744856,-0.7568524235506842,-0.26063665403135405,-0.6250639570560468,0.07549725057122535,-0.027218598907059764,-0.9044535427807487,-0.9178402074394942,-1.079180010935299,-0.661595724376091,-1.040397297627616,-0.9587594311615495,-1.0656583920786729,-0.6104863974583197,-1.0092696857776504,-0.3894420316567539,-0.6346302172294901,-0.4937440449949375,undefined,1489864457829
903d185fccf839df,-0.7499150718626248,-0.5557934471526562,-0.3047367464547497,-0.24709615730644702,-0.11634271256358407,-1.8326488206315392,1.887197986234517,-0.8562088833662393,-0.28133276049899564,-0.6305115214694871,0.08213701934335388,0.007214091272111091,-0.9044535427807487,-0.9233952090675139,-1.0770747360092376,-0.6232041488196673,-1.044786033781226,-0.9635534693979918,-1.065910277251882,-0.6158142600943026,-1.012271293464922,-0.3903962856725267,-0.6355226626792073,-0.4927767329495863,undefined,1489864458740
903d185fccf839df,-0.7180369040253014,-0.5804481355297392,-0.29261441396725346,-0.26486538209945004,-0.14105924206889933,-1.8217852489738116,1.897688280107414,-0.7838565383423683,-0.2669112960182651,-0.650343067062676,0.08099002138121814,0.04345215237799268,-0.9218610739750446,-0.9252468784353163,-1.0781273624289176,-0.6110805052817321,-1.0426782565924568,-0.9669542599368213,-1.0683381705037478,-0.6102554218805347,-1.0131838792822774,-0.38922336060361945,-0.634903610248814,-0.4952273979659925,undefined,1489864459264
903d185fccf839df,-0.6681402872678954,-0.5628376271301129,-0.33727542491112406,-0.35262627333441415,-0.1823048870291157,-1.8444650510346887,1.8821224613595926,-0.9204103037532122,-0.2700731913901875,-0.6505579552167787,0.07771705514717116,0.0025076479936152613,-0.9305648395721926,-0.9261727098815238,-1.0833905350196031,-0.6656369294671622,-1.0597648615667925,-0.9710010107362815,-1.0730750114366732,-0.6411755003097535,-1.02206003803235,-0.38959329826922356,-0.6483358619078108,-0.49645909567482926,undefined,1489864460276
903d185fccf839df,-0.6667542739696797,-0.5522713571639278,-0.32260104917751814,-0.2592539391464464,-0.21476654501803683,-1.8486716567984793,1.909598677278376,-0.7535149363582239,-0.26339906349500447,-0.6515252239676302,0.07740884590706175,0.003146639800899713,-0.9653799019607844,-0.9243210437514151,-1.0907589530874147,-0.677760544740376,-1.0658251554300133,-0.9699940724590361,-1.0726552026800824,-0.6458566279273592,-1.0228024439204617,-0.38811957620109194,-0.6459111819102212,-0.49732849929625195,undefined,1489864460763
903d185fccf839df,-0.6251738750232071,-0.6027546762303595,-0.3723661466136083,-0.3193734108128558,-0.2783424390669812,-1.8632689986257014,1.8991057509832105,-0.8533713743488295,-0.27518412229262484,-0.6607374648171886,0.07874489869065626,0.01200350530398504,-0.8957497771836007,-0.9206177050158104,-1.0939168654765064,-0.677760544740376,-1.0758602712400973,-0.9741041532046436,-1.0806525574998902,-0.6453638781173342,-1.0258030883547067,-0.3917552653704248,-0.6469098131291935,-0.49772370068780464,undefined,1489864461745
903d185fccf839df,-0.7097208242360069,-0.607450825443323,-0.37619446561972236,-0.2921582091675047,-0.32933892622003036,-1.8619972342637277,1.909419848547804,-0.7979487756362252,-0.25911229202582303,-0.6479928654605333,0.07884253594087755,-0.08931838777493059,-0.8696384803921569,-0.9326535461934446,-1.0949694882150696,-0.6757399421948403,-1.0802346456963592,-0.979119844763238,-1.0831504191357904,-0.6572360791660142,-1.0308634953327995,-0.3907715497963897,-0.6470391618108987,-0.5014167825333472,undefined,1489864462275
903d185fccf839df,-0.7707054093575,-0.5886663455034385,-0.34620783040945774,-0.2720617872674095,-0.42911019033391556,-1.8607114941321128,1.9109898480244927,-0.8133541406119671,-0.25501680578778263,-0.630715169951043,0.07733549738223161,-0.05207296815875475,-0.9262129567736186,-0.9335793808773458,-1.0991800159804905,-0.6393690257133954,-1.0756137417067526,-0.9851994704831409,-1.0841229754194543,-0.6548339219725643,-1.0345960338038347,-0.39767248502656594,-0.6428767897380585,-0.49252165454391683,undefined,1489864463243
903d185fccf839df,-0.7415991300949692,-0.5839701962904751,-0.37874650886583217,-0.32616982318272897,-0.4843135279657998,-1.8655004098987937,1.9115684037389726,-0.829029718081596,-0.25985440708712354,-0.627055371663798,0.0824718507387729,-0.05930805629484484,-0.6476924576648841,-0.9187660421233954,-1.0960221183158663,-0.6110805052817321,-1.067600649832977,-0.9757507184943255,-1.0793021729639893,-0.6326601604087508,-1.0242609389221782,-0.3973314566860723,-0.6387582831354874,-0.4887452985910874,undefined,1489864463753
903d185fccf839df,-0.723580888207345,-0.5874922862792035,-0.3532255681308355,-0.3015653305284952,-0.547251709802621,-1.8702706915995149,1.9219245813015502,-0.7777980676412997,-0.25101727622664594,-0.657873653227569,0.0767895873331863,-0.08211763860507268,-0.5127840909090909,-0.9104335396813659,-1.0991800307049582,-0.588853834883758,-1.0349204090741202,-0.9580248093184788,-1.0704162234686962,-0.575131567682932,-1.0011592821340332,-0.38940758604939596,-0.6056439032715206,-0.46559435413115907,undefined,1489864464840
903d185fccf839df,-0.6736844784823973,-0.5634246713562265,-0.29899426794557854,-0.3138466729154066,-0.6096344621388802,-1.8666184447233658,1.9278311251185076,-0.7493636900008677,-0.237150169558225,-0.6476453336145035,0.0823277252979915,-0.0796423377261138,-0.44315396613190733,-0.9206177082535041,-1.1054958260342065,-0.5868332182058615,-1.0369642084847461,-0.9613749366290156,-1.0749571538561182,-0.5762710526459572,-1.0046106674123718,-0.39423145400802184,-0.6039446949107556,-0.46590458414857217,undefined,1489864465317
903d185fccf839df,-0.6570521808821694,-0.5610765821357487,-0.39214410056553495,-0.35615585449494574,-0.721409132562102,-1.8808337912699324,1.9306344977057979,-0.7655942076860658,-0.2123725729948814,-0.6734276472042624,0.09018826986673004,-0.12951414102644182,-0.2647267713903743,-0.915062700150097,-1.1065484487727697,-0.5827920131147903,-1.0436736866572605,-0.9651557039767354,-1.0802467431052174,-0.5592249731061242,-1.0027485312403441,-0.4020749575735158,-0.6119801486748754,-0.4792815400745305,undefined,1489864466270
903d185fccf839df,-0.6237879307358108,-0.5757519863167757,-0.32898090315584316,-0.3559901796794819,-0.7810250313407384,-1.895724617431594,1.929921822538433,-0.7980095755564593,-0.21997037220508944,-0.6733576171452208,0.0878634896956291,-0.139395467267143,-0.5432472704991087,-0.9132110307822948,-1.1086537089743633,-0.5827920131147903,-1.054995856799152,-0.9627365197411216,-1.0837731357748284,-0.5599640986490937,-1.0018670115823651,-0.40561901209723394,-0.6154036070363128,-0.47901010814434736,undefined,1489864466825
903d185fccf839df,-0.6251739440340266,-0.592775421262296,-0.3277051356697377,-0.3559901796794819,-0.8387895048845112,-1.9159983154678577,1.9357626259826475,-0.7900037153577569,-0.2099391979846928,-0.691721864738627,0.08997279078607433,-0.06244080901939473,-0.669451871657754,-0.9233952155429012,-1.108653716336597,-0.5686477528989587,-1.0613290433141298,-0.967802874782695,-1.0827446045086695,-0.5328012402895026,-0.9978222944793155,-0.40673400314102687,-0.6194855593541967,-0.47877279898794994,undefined,1489864467726
903d185fccf839df,-0.6126996863284458,-0.6614562929544676,-0.30409886271169695,-0.340809231982781,-0.9136693788444371,-1.9269830074108851,1.9310053057555419,-0.8471242014019079,-0.21162716416484495,-0.6761056157665208,0.08938062606295939,-0.025517548306005975,-0.7695451760249554,-0.924321053464496,-1.1107589839004244,-0.5747095746679264,-1.0687370214507013,-0.9710453419510564,-1.086774767549167,-0.5348646322485512,-1.0007991011138588,-0.4083721372122646,-0.6177357293158471,-0.48136076239474396,undefined,1489864468276
903d185fccf839df,-0.6293319149178543,-0.7465735261380535,-0.32898090315584316,-0.37025810810176224,-0.9993903778229978,-1.9425982266707562,1.9394312107183689,-0.8234280485752978,-0.2316245823054202,-0.7021945688714153,0.09344285672010698,-0.09046218288418792,-0.8609347147950089,-0.9372827196129504,-1.1054958297153235,-0.5484417133112418,-1.0653081640305175,-0.9721156092498258,-1.0815831339520774,-0.544781231479442,-1.0008044107038103,-0.4087315095320952,-0.615237968152911,-0.4820568027889368,undefined,1489864469240
903d185fccf839df,-0.557259119894406,-0.7160486877797566,-0.31175499245002625,-0.3516994593022511,-1.0656611232196886,-1.9383846327901957,1.9470865796000212,-0.7805975571201961,-0.24156641667087958,-0.696085531807682,0.09492248568486272,-0.18183369726625193,-0.8261196524064172,-0.924321053464496,-1.1076010825546834,-0.5464210683686238,-1.0628055632923843,-0.9725082517633608,-1.0869007105609074,-0.5505402501302025,-1.0035502666268987,-0.41471827778784864,-0.6186998788951956,-0.4868141050985513,undefined,1489864469753
903d185fccf839df,-0.5752773617820303,-0.7201577927666064,-0.35003564114167296,-0.38946511930641176,-1.1514952654618276,-1.9430617454332162,1.950528992857694,-0.7758159828847231,-0.26783699940829214,-0.6935561237411012,0.09855992514770939,-0.17431007136744328,-0.0601882798573975,-0.9270985542785058,-1.109706342756277,-0.5302562338719781,-1.0595726538346528,-0.9743384726023969,-1.0902661767822182,-0.5224534857438743,-0.9991772298819475,-0.41789057721198997,-0.6215629695935729,-0.48736580656053524,undefined,1489864471209
903d185fccf839df,-0.5849794548695405,-0.7201577927666064,-0.35003564114167296,-0.38946511930641176,-1.1616575338557615,-1.9416269340877002,1.9481174594152044,-0.7927718397711302,-0.2634046282176555,-0.7094264595945117,0.10276758342541861,-0.1365501014121512,0.05296067290552586,-0.9345052187989406,-1.1107589802193076,-0.5302562338719781,-1.0632369233424754,-0.976130695613269,-1.0920923444760844,-0.5215911726911837,-1.0003600331125162,-0.4194238169061256,-0.6216653971313932,-0.48748453995300584,undefined,1489864471310
903d185fccf839df,-0.6944745744394044,-0.7465735261380535,-0.4393571547555153,-0.42672390912832203,-1.275695056739215,-1.9439421979309568,1.9459189395295093,-0.8303239290201274,-0.2652319951288983,-0.7000750242253094,0.09792569390923317,-0.08365705893290028,0.022497493315508033,-0.9548735624186043,-1.124443212021952,-0.5403592465996562,-1.0688690625854786,-0.9823433133220337,-1.1028674333423916,-0.5279661285943786,-1.0068294234501083,-0.4234137242649164,-0.6232242560339105,-0.48624354043176704,undefined,1489864472245
903d185fccf839df,-0.7776354758485788,-0.7547917361117529,-0.5242124656201907,-0.5098825847294872,-1.3225052640193007,-1.9502334730869326,1.9524198199767733,-0.800845352012402,-0.274204697358278,-0.6732895979752175,0.10046803944382718,-0.14314608837672016,0.022497493315508033,-0.953021893050802,-1.1286537508307237,-0.5464211107657061,-1.072016520586259,-0.9848764908151371,-1.1052113649799613,-0.5350032180152461,-1.0096167164065886,-0.4221967192434462,-0.6223218686463519,-0.4858951283037816,undefined,1489864472787
903d185fccf839df,-0.8580243334086167,-0.7800333810309725,-0.5567511440765652,-0.6201607036047537,-1.455427327857693,-1.9632469323656103,1.9550575165171362,-0.813693144729776,-0.2668859034032794,-0.6820215116947412,0.09631901024322385,-0.21335995967151167,-0.3038937165775401,-0.9687610729640408,-1.1560221997115452,-0.5666271220887016,-1.0776655793616197,-0.9941985837643048,-1.1208492370507692,-0.5209444369189173,-1.0127922309724933,-0.4310319196526745,-0.6297848885657303,-0.5005353404880715,undefined,1489864473735
903d185fccf839df,-0.905148837306067,-0.8023400094155699,-0.6103440522448705,-0.6419248528798914,-1.5038112463665552,-1.9678914354883368,1.9648509098533624,-0.7601847783773455,-0.27771131692942663,-0.6623211121682565,0.10023435385912297,-0.18742070241331985,-0.26037488859180036,-0.9789452447738727,-1.1591800936950525,-0.5565241093610235,-1.0724299771770307,-1.0068834700553175,-1.1290774864949324,-0.4449993032104805,-1.0032559495451423,-0.4423719317830138,-0.6313967938758481,-0.4906737038040234,undefined,1489864474283
903d185fccf839df,-0.9481153013088699,-0.7594878853247163,-0.6900957848912254,-0.7257230937488266,-1.5794625473983126,-1.9501472912761912,1.9603276416107607,-0.7839912380962994,-0.30016096907103773,-0.6723415090593367,0.09330527625487373,0.00911917294260765,-0.45620961452762926,-0.9983877407588607,-1.1591800936950525,-0.5080294645474787,-1.049951103672351,-1.0093469851845798,-1.1306937497034546,-0.3819272693970337,-0.9890918932865596,-0.4431258740575946,-0.6402215833764497,-0.49551698203253197,undefined,1489864475242
903d185fccf839df,-0.9772215805714006,-0.7600749003228378,-0.7015797253617699,-0.7489999949245448,-1.6061127883709707,-1.9412845359149735,1.9680461257755406,-0.7313258064576734,-0.2980619944231028,-0.6678970236096184,0.08955531917333699,0.13492779300097993,-0.36482007575757575,-1.0011652350974833,-1.1718116769913156,-0.5140912863164463,-1.0472902177821184,-1.0094103146877937,-1.1346679381101297,-0.3747669921702743,-0.9892287154760324,-0.44239108840332153,-0.6414437940427677,-0.49256458524735125,undefined,1489864475772
903d185fccf839df,-1.028504141616203,-0.7964698302063637,-0.7277385498398193,-0.7765970412486698,-1.6679401132552016,-1.930178723556175,1.9544421404115992,-0.8224962785602037,-0.31696296866653895,-0.6695186273130027,0.09031981548417116,0.04407178394409251,-0.34741254456327986,-1.000239419839744,-1.1697064388764233,-0.4069991252852862,-1.0335403143638433,-1.0130327584158951,-1.1393697951721833,-0.3433387650547905,-0.9832852583872428,-0.4409981617146386,-0.6474722335475965,-0.4921125985104526,undefined,1489864476795
903d185fccf839df,-1.0576104208787338,-0.8017529651894563,-0.7283764335828721,-0.7789984372757461,-1.6904040751230962,-1.925988422219104,1.9550995986101634,-0.8166433680401828,-0.31818810707803247,-0.6672086036823908,0.08977502715659921,0.008585749051901521,-0.34741254456327986,-0.9974619190257341,-1.17286432181658,-0.40901969956610024,-1.0315944537381396,-1.0158572513735253,-1.1424413951653958,-0.3387962236750606,-0.9844328307765315,-0.4406581221539419,-0.6461387685683714,-0.4895323870710884,undefined,1489864477343
903d185fccf839df,-1.0964188622395943,-0.7553787511098743,-0.7634671552853562,-0.8211196619553262,-1.7346325717563462,-1.893495535473375,1.9470865806475424,-0.8383045011609831,-0.32520435705446277,-0.6635444080202242,0.08612921868659681,0.07171448028903649,-0.28213430258467026,-0.9956102593710127,-1.177074853263118,-0.4130609470542538,-1.0315944537381396,-1.019631685805251,-1.1476820064569735,-0.3332219867600626,-0.9863553150073202,-0.441166840467823,-0.643982977547078,-0.48581306898819565,undefined,1489864478233
903d185fccf839df,-1.1255251760075349,-0.7864905752383001,-0.7615529957822992,-0.8174787669834848,-1.7542576824019256,-1.879268542249152,1.941808560382157,-0.8648304592762434,-0.31374014400845635,-0.651238658851111,0.08624604171403294,0.10262344168943911,-0.5301916221033868,-0.9919069173977144,-1.181285384709656,-0.3787106189859837,-1.033014476185462,-1.0180294509828942,-1.1496551070630256,-0.3428152179230791,-0.9879631926111313,-0.44220162618492276,-0.6455693097874208,-0.48341004991444053,undefined,1489864478772
903d185fccf839df,-1.119981105561967,-0.7835554710197009,-0.7487927795517503,-0.815574721070289,-1.764605094570872,-1.859148573467602,1.9503554289716591,-0.7894774180941737,-0.3047235124614404,-0.641482314503992,0.0824946303558506,0.10555359276366737,-0.9610280191622104,-0.9956102561333191,-1.1897064512838487,-0.3766900164404481,-1.0381096737505222,-1.0157622572792677,-1.150991497848715,-0.351268965065432,-0.9890291474821151,-0.444162161086411,-0.648989705227941,-0.48177740537687724,undefined,1489864479728
903d185fccf839df,-1.1393853262423972,-0.7812074694832,-0.7819693417511775,-0.8278676479334075,-1.779077070476042,-1.8594676792200626,1.9356416654985376,-0.8897079470770852,-0.3049090354950865,-0.64779976559606,0.08437160505077888,0.06877945271304485,-1.030658143939394,-0.997461928738815,-1.1960222466130972,-0.37264875481993376,-1.0353155272599126,-1.016287891610028,-1.1542030340839293,-0.3488976044397792,-0.9896360299220369,-0.4442871924063727,-0.6502499155514408,-0.4799248719622272,undefined,1489864480298
903d185fccf839df,-1.1657196134139063,-0.7659450210760592,-0.7832456175111817,-0.8249865946600533,-1.7795090697636609,-1.8651184135254384,1.9389657349815423,-0.8703788517765182,-0.3071114143287822,-0.64721408817383,0.0864406853650426,0.059533905475992605,-0.9653799019607844,-0.9983877537096353,-1.2033906794053764,-0.3867930433004869,-1.0460691258972514,-1.017535481270861,-1.1590798111976857,-0.3540098877221424,-0.9941061672068738,-0.44739462762089516,-0.6493586010204655,-0.475633014474833,undefined,1489864481236
903d185fccf839df,-1.1532454505982024,-0.7765112910422443,-0.8074897742122753,-0.8252109827917358,-1.7793033557968847,-1.8619949036985017,1.9413851541680969,-0.8513115342013664,-0.3061270738935236,-0.645885611667053,0.08373111198003493,0.11728926166055671,-0.7782489416221035,-0.9993135948689237,-1.2054959432880867,-0.41508154959978943,-1.046502905133173,-1.0141410235040722,-1.1619904843878082,-0.3434773508484101,-0.9921470423306461,-0.4479232579280935,-0.6501589569594409,-0.4731256754578439,undefined,1489864481786
903d185fccf839df,-1.1532454764772597,-0.7665320360741806,-0.7991957607308932,-0.8035417747554187,-1.784096490980906,-1.8502951355180945,1.9323833280081013,-0.8989128625909644,-0.3091924315693374,-0.6427521370209628,0.08774177693303768,0.1499417033069405,-0.3430606617647059,-1.0067202464385838,-1.2054959432880867,-0.4191227405584999,-1.0615677498098595,-1.0215569005004683,-1.1742838809757885,-0.3508994017689172,-1.001559264158027,-0.45731860055988455,-0.6499045900290135,-0.47155955769840907,undefined,1489864482752
903d185fccf839df,-1.1504734153754184,-0.7853165452420574,-0.782607733768129,-0.7915536462439847,-1.7768656450566265,-1.8420379825764088,1.9270343025254364,-0.9246478313027899,-0.3037183375030703,-0.6489000052651759,0.08279074003196496,0.12824416816687978,-0.11676275623885918,-1.0085719125686925,-1.212864376080366,-0.4292257815508995,-1.0706808844033935,-1.0281494948630965,-1.1772785161166452,-0.3535171376832582,-1.0051833065442424,-0.4591069082840462,-0.6482172634687521,-0.4699937677764195,undefined,1489864483262
903d185fccf839df,-1.1172090962182404,-0.8340388193141248,-0.7481543875347987,-0.7608288281128459,-1.7523239721028874,-1.8265858095408074,1.936656763350374,-0.8437692870919384,-0.31615745973878767,-0.6408906601984409,0.07851918711430951,0.11828889935701832,-0.1994485294117647,-1.0215336110940834,-1.2212854389734418,-0.5423798632775526,-1.0966954000286622,-1.0458754040998466,-1.1924126176085867,-0.4359296182502761,-1.0347544006400806,-0.4747815713089225,-0.6926927128491062,-0.5047667437287022,undefined,1489864484238
903d185fccf839df,-1.1102789952217518,-0.8440180742821884,-0.6798876119067863,-0.7104076990841734,-1.739507993708986,-1.8184497771816066,1.9360755762611477,-0.8361357864165245,-0.31524102984439345,-0.6537281711585562,0.07002713466390108,0.10293816393487014,-0.44315396613190733,-1.019681941726281,-1.2170749075269038,-0.5403592324672954,-1.1001825051575724,-1.0474649729241154,-1.1909153000565096,-0.4310637095700234,-1.0342460366328838,-0.4748068212708484,-0.6897985352449598,-0.5047422800607673,undefined,1489864484799
903d185fccf839df,-1.1199810969356145,-0.8340388193141248,-0.605239965752651,-0.6220454120398794,-1.726208587520267,-1.8226424082485233,1.9306292506691327,-0.8739281912369995,-0.3227659299297412,-0.6520280985126287,0.07414146209427233,0.0642009050439933,-0.852230949197861,-1.019681925537813,-1.2149696436441932,-0.5444004092936452,-1.1150884878109772,-1.0531899540416978,-1.1894179824554958,-0.40805843284062293,-1.0315093158491315,-0.47597765152715976,-0.6959654811601341,-0.4926584812701932,undefined,1489864485779
903d185fccf839df,-1.0645405391279272,-0.8293427577851384,-0.523574581877138,-0.5644671842164594,-1.71162346912372,-1.8249180748388825,1.9299323490849398,-0.8798870158493934,-0.3245415564800024,-0.6575655266645059,0.07560058402316969,0.022483912689771506,-0.8913978943850268,-1.016904434436884,-1.2181275449899345,-0.5241943414412067,-1.1164268622960976,-1.0510114215827748,-1.1898377911142137,-0.4131245212712905,-1.0316062810593214,-0.47601390565884316,-0.6966869529897345,-0.4919927014451075,undefined,1489864486332
903d185fccf839df,-1.0631545258297115,-0.7900126359990362,-0.4010759977899697,-0.3790049297875829,-1.6998874881826656,-1.8183239984151531,1.9342767854544047,-0.839799324123852,-0.3252553466582825,-0.6543846441374663,0.08114162332213981,-0.06718760557994365,-0.8826941287878788,-1.0270886030090223,-1.2191801787718481,-0.5181325620693213,-1.1305607196590632,-1.0587629445497793,-1.1921817225438034,-0.4470164997120294,-1.0429878865762041,-0.47560786133537736,-0.6928207597428753,-0.4953055667905203,undefined,1489864487251
903d185fccf839df,-1.0492943497157916,-0.7512696461230246,-0.3717277545966567,-0.3450425403106619,-1.6875857949487678,-1.8227076265062818,1.922829241025697,-0.915819411414676,-0.3233530529669236,-0.6558069332675137,0.08153336932951218,-0.11354079034319571,-0.8261196524064172,-1.0206077634594077,-1.2212854426545587,-0.5403592465996562,-1.138298396335288,-1.0576800110757485,-1.1927904451634792,-0.4582727631044057,-1.0456643760612991,-0.474710640410548,-0.6925468173946348,-0.4936254628644944,undefined,1489864487784
903d185fccf839df,-1.0534523982367914,-0.6996122678323579,-0.25688580852171655,-0.2728121936006299,-1.6667675436147698,-1.811487681667271,1.9188897860094594,-0.9221689664055365,-0.324050269548479,-0.6582508433433565,0.08310682123556934,-0.1525939259805883,-0.5301916221033868,-1.0178302626453979,-1.2265486078830103,-0.5363180273762242,-1.1321848846594171,-1.051258406236703,-1.1937839923507867,-0.4551314806776194,-1.0423589038649563,-0.47422252301838064,-0.6944055527802389,-0.49490234748862816,undefined,1489864488819
903d185fccf839df,-1.0104859342339885,-0.7242669562094407,-0.19053268412286228,-0.2351007924265464,-1.653200709002973,-1.8089674442690775,1.9235445412826777,-0.8845233966344725,-0.3136280526822275,-0.6565762074704058,0.0863975445950073,-0.08794549758792486,-0.24296735739750447,-1.019681925537813,-1.2339170296319388,-0.5565240810963019,-1.13116360533147,-1.0544248781916692,-1.1967226528333523,-0.45850374016304457,-1.04549514747184,-0.4750592006785415,-0.6943584964983478,-0.4937783276796649,undefined,1489864489281
903d185fccf839df,-1.0645405391279272,-0.6820018763447009,-0.09674496775985313,-0.08818715153502614,-1.655802989649522,-1.7808884660137934,1.9083705606321355,-0.9405884895497085,-0.30399698472018866,-0.6762697080134034,0.08200777978051207,-0.0933478465944974,-0.2908380681818182,-1.0169044182484157,-1.2360222935146494,-0.6151217386375248,-1.1479898971838924,-1.0528669738366374,-1.198786711950216,-0.49395096096112995,-1.051860782971303,-0.47300637011937774,-0.6975466091145354,-0.5002658629227045,undefined,1489864490286
903d185fccf839df,-1.0645405391279272,-0.6755447113653656,-0.011251773152124906,0.014245419340739857,-1.655689846483969,-1.7741313438151964,1.9085704277904163,-0.9273307408776112,-0.3053481307507398,-0.6778127839679657,0.08317217982530942,-0.2088913609073333,-0.39528325534759357,-1.0169044279614967,-1.2254959741010967,-0.6373483807707774,-1.159070250175092,-1.0478196175541192,-1.1958270608209234,-0.5071166320061772,-1.0506916442134984,-0.4713968283578727,-0.6996872762327937,-0.5014202225268518,undefined,1489864490747
903d185fccf839df,-1.077014641559164,-0.6632173379488318,0.044893178262290265,0.0270668142748149,-1.671642961942465,-1.734070758316528,1.9139352310463413,-0.839102350799413,-0.31230696077688724,-0.6803141067246467,0.08376701113445505,-0.18422708372853522,-0.4649133801247772,-1.0048685770707815,-1.2233907065372693,-0.6333071756797062,-1.137679204779923,-1.0381365467876569,-1.1944486890231643,-0.5260875175498916,-1.0489691060489374,-0.4679680731889223,-0.7042906229516176,-0.5019575796117615,undefined,1489864491713
903d185fccf839df,-1.0534523982367914,-0.6778927129018665,0.038513324283965235,0.034884797352069744,-1.6750886708444548,-1.7233725626709029,1.9064508051511961,-0.8726163297187277,-0.3224564844944635,-0.6860076753330772,0.09318164701215399,-0.11888195658164613,-0.3604681929590018,-1.0011652480482578,-1.2212854426545587,-0.6353277923576026,-1.1343173409984362,-1.0345204360696727,-1.1924126170886367,-0.5329552243400961,-1.04775061957557,-0.46829473630363394,-0.705971872886084,-0.5035281310877284,undefined,1489864492261
903d185fccf839df,-1.0437503051492811,-0.6643914264010592,-0.03102972710405157,-0.04584067591621807,-1.667888683325633,-1.7087705620218507,1.880739196260455,-1.0239140885680817,-0.3250861702313851,-0.6856248578174192,0.1018233847234393,-0.03783302028097551,-0.5693585672905526,-0.9937585802901294,-1.2160222774261071,-0.6878636281298579,-1.1348383605774808,-1.0297580621861975,-1.1924545979477796,-0.6048967618286292,-1.0637358094725944,-0.46753615865498677,-0.7065291373539472,-0.5008442694588155,undefined,1489864493231
903d185fccf839df,-1.0645405391279272,-0.6608692195003616,0.004060994598432623,-0.03000300126552138,-1.6579321282883164,-1.6961274517230904,1.8869876134801644,-0.9649630324706571,-0.3224317794370703,-0.6904574033635588,0.10636426701379231,0.02930187531776404,-0.5867660984848485,-0.9882035754244162,-1.2191801714096144,-0.7505024483650697,-1.1607005239268102,-1.0199230005555477,-1.194791532805058,-0.6975646075205924,-1.0818325717588675,-0.46470274741396767,-0.6986946912235238,-0.5178391931455472,undefined,1489864493770
903d185fccf839df,-1.082558712004732,-0.6362145895792632,0.004698370067586509,0.08242272808541629,-1.6719515334497743,-1.6736735856955547,1.9045494619608279,-0.8202014559591387,-0.3260173392870773,-0.6716863048778837,0.11656218489724306,-0.04020616774864841,-0.5693585672905526,-0.9845002399265051,-1.2139170061811628,-0.8050588866828606,-1.1686332757979672,-1.014464003005976,-1.1931752695965356,-0.7434827731338005,-1.089961576637455,-0.46443076001825834,-0.694182443900082,-0.5149185037963669,undefined,1489864494820
903d185fccf839df,-1.0673125312189489,-0.6303444395980494,-0.05144607307292982,0.008347946897070633,-1.6877915071050724,-1.6658846091059272,1.8901091959528822,-0.9070364486603091,-0.3196809614934924,-0.679954784592988,0.12662733325603567,-0.046929235603737185,-0.5998217468805704,-0.987277740740515,-1.2160222737449902,-0.8070794821622159,-1.172342268858942,-1.0130390906951727,-1.190873318830343,-0.7426358584861694,-1.0891985769526533,-0.46505899942540907,-0.6936849417934486,-0.512534720974399,undefined,1489864495328
903d185fccf839df,-1.0589964514296544,-0.6209521996281072,-0.0610163623143162,-0.05248751178115104,-1.6827618007831386,-1.6573363007623212,1.8849915921274965,-0.9304364402506351,-0.31970526659316245,-0.6660585013024092,0.13606982878327006,0.021706333917045503,-0.6563962232620321,-0.9817227391124953,-1.2139170061811628,-0.8252649616014796,-1.189399305661252,-1.0093026538590715,-1.1923356522056956,-0.7876455144718156,-1.0987790912395567,-0.46429433717554885,-0.6861439967719318,-0.5144077474333708,undefined,1489864496649
903d185fccf839df,-1.0520663849385756,-0.6274093646074425,-0.05910220281125916,-0.050665294616632675,-1.6858783668837682,-1.6551817546094785,1.8822197761342485,-0.9465671619484511,-0.31905782257550286,-0.6613813358773927,0.1351178000881621,0.09011258948636243,-0.8043602384135473,-0.9817227391124953,-1.2149696399630765,-0.8252649616014796,-1.1877271213078686,-1.0090936667066441,-1.1918528722490878,-0.7836881141402054,-1.0976549420430697,-0.4644996987518287,-0.6869548596604373,-0.5141920638306302,undefined,1489864495852
903d185fccf839df,-1.0382062433300656,-0.6186041980916064,-0.07122453529875532,-0.050665294616632675,-1.6978406329576161,-1.6438360299022543,1.885325578738662,-0.9117909190503884,-0.3205727390502332,-0.6685545616089631,0.1392563102573206,0.07581748584472298,-0.8217677696078431,-0.9872777536912896,-1.2191801787718481,-0.8333473717836221,-1.185808543206782,-1.002317416982908,-1.1901526472427575,-0.778729814787275,-1.0927522436870798,-0.4652721154615719,-0.6906922240192579,-0.5169775984171726,undefined,1489864496612
903d185fccf839df,-1.04652232311936,-0.605102736222845,-0.0795185487801374,-0.05511111967599819,-1.7022017692541225,-1.6364313789030012,1.8821408809828175,-0.9213393308096758,-0.3201634651433547,-0.6576187104775768,0.13927064916556298,0.01766302128349841,-0.8826941287878788,-0.9891294198213982,-1.2170749112080208,-0.8293061596263704,-1.1823982198118919,-0.9996575805941103,-1.1921607320744712,-0.8007803878586187,-1.0972484497165234,-0.46514714642986454,-0.6874248178733461,-0.5175052530084007,undefined,1489864497162
903d185fccf839df,-1.0437503137756337,-0.5974715412472671,-0.06229212980042167,-0.03859882802186548,-1.7175274573713184,-1.6284653815951857,1.8846602358435556,-0.895829874889581,-0.3141573487804157,-0.639348445646484,0.13437071496747008,-0.05391444108411089,-0.8870460115864528,-0.9863519157696947,-1.2139170098622796,-0.8192031186339708,-1.180264683142016,-0.9993346003835132,-1.190817344471788,-0.8181190372695898,-1.0991744059455426,-0.4631552709220063,-0.6863473263259616,-0.5169640257726172,undefined,1489864498826
903d185fccf839df,-1.036820212779145,-0.5951234812547815,-0.05910220281125916,-0.015201319153570628,-1.7128474652248167,-1.633848253063876,1.8945903841975003,-0.8389015726543938,-0.3144809623236468,-0.6383476009852825,0.13762302114464042,0.028039733193007323,-0.8913978943850268,-0.9863519092943075,-1.2107591048354216,-0.8192031186339708,-1.1792621660780416,-0.9932866393819971,-1.1885433809796873,-0.8201362335961286,-1.096758564600605,-0.46156816458829897,-0.6834411453845988,-0.5161789079541289,undefined,1489864499138
903d185fccf839df,-1.0437503051492811,-0.6092119581216642,-0.07250081105875963,-0.10123270480086173,-1.7277925839619566,-1.6460977214550634,1.8769706863257674,-0.9733510899928228,-0.3394009305011114,-0.6353572108259151,0.1359952457214095,-0.020092087601868275,-0.9175091911764707,-0.9845002399265051,-1.2002327780596351,-0.827285542948474,-1.185204247824146,-0.9985746472474228,-1.1898657782965498,-0.827650675041228,-1.0995783981634775,-0.46038583861441734,-0.6853927177946586,-0.5160541929260635,undefined,1489864500035
903d185fccf839df,-1.0243461103479081,-0.625648378069063,-0.041237900088490695,0.04126907760999684,-1.717620029640924,-1.6574574203952628,1.882417009822739,-0.952480343178619,-0.3285306607476623,-0.6181484062655809,0.1337763975364016,-0.009474146432152884,-0.9001016599821747,-0.9835744181933785,-1.1949696091500666,-0.8192031327663315,-1.1786228950069257,-0.9908357900681131,-1.1816235352795699,-0.8439114330017126,-1.0951883074665247,-0.45980216207171803,-0.6824595774207544,-0.5180073545722492,undefined,1489864500570
903d185fccf839df,-0.9952397965799676,-0.6432588280127046,0.1259206783947505,0.17583093949078843,-1.7043206246765243,-1.654862647994456,1.9003470171705295,-0.8182185560290633,-0.3300318795704522,-0.6074395676192931,0.10779614301822155,-0.018521967891089838,-0.7913045900178254,-0.9520960518915136,-1.1854959345617784,-0.8879038171675934,-1.177160508199797,-0.9792718348467554,-1.1793005937137238,-0.9173158214075626,-1.1051935866854368,-0.45381088339845144,-0.6716978401056963,-0.5265227105233938,undefined,1489864501536
903d185fccf839df,-0.9924677699835361,-0.662043307952589,0.22226043800386944,0.24251876679527684,-1.7129914675060123,-1.660201265004817,1.9060142514911,-0.7884339005051394,-0.330719378313209,-0.6011112711996929,0.09905867845009064,-0.049996555661870105,-0.7738970588235294,-0.9483927163936026,-1.17391694823626,-0.8757801453649365,-1.168907279328981,-0.9777329296992492,-1.1783630211113023,-0.9076609963685249,-1.1019025643700004,-0.4543357678059125,-0.6682940129324862,-0.527435708839329,undefined,1489864502107
903d185fccf839df,-0.9647474436347541,-0.5886663747314309,0.310944067874659,0.2471628773755482,-1.6951560690533631,-1.6631244610916807,1.8754033108911727,-0.9852169620283936,-0.31872978916600303,-0.6034200786891807,0.10861811425899898,-0.0313084702114378,-0.7390819964349377,-0.9567252188356321,-1.1707590579338696,-0.9060892330112335,-1.16167311149759,-0.9727045724636932,-1.1741019633118743,-0.9449252345639352,-1.1043820906258155,-0.4507111829125774,-0.6677469103843642,-0.5272432324607756,undefined,1489864503024
903d185fccf839df,-0.9647474436347541,-0.593362494716402,0.3957998870132333,0.3457153751416278,-1.7011937722726986,-1.6665298090827905,1.876833927117962,-0.9763154870792021,-0.32764191018840805,-0.6227675305060744,0.10093288329532406,0.004696416107461279,-0.8304715352049912,-0.9669094100716258,-1.180232758289976,-0.9040686445980587,-1.169643653297525,-0.9825839647333047,-1.1800352590087013,-0.9440629212016116,-1.111081843125821,-0.4544462686447388,-0.6693304426279201,-0.5250024628775354,undefined,1489864503570
903d185fccf839df,-0.9384132168477121,-0.5769260163130184,0.3785734680335176,0.31529835119671973,-1.67508867312905,-1.6829206660020375,1.928399160571612,-0.6549612091092191,-0.30795806367766315,-0.6031222089111807,0.08105199055970548,0.023986066158625138,-0.8000083556149733,-0.9539477180216223,-1.1718116953969002,-0.9081098850200318,-1.1919426326787574,-0.9818493429179173,-1.1680917029706714,-0.9702094810578383,-1.113895793162843,-0.4559952030062391,-0.6614701825644248,-0.5234487387670161,undefined,1489864504535
903d185fccf839df,-0.9287111237602018,-0.5880793012773249,0.4053696679807209,0.39487853582289806,-1.6690098264733917,-1.6964908135357812,1.913382975461541,-0.7722939753904577,-0.3127868373694506,-0.5690059912739298,0.07390467625731152,0.023515779821015836,-0.7521376448306596,-0.9585768817280471,-1.1749695856992906,-0.9566044591717728,-1.1917842235920084,-0.9830019387059593,-1.1685744828599918,-0.983698519080313,-1.1163544017821512,-0.45804553288724736,-0.6568646731017461,-0.5248645584322278,undefined,1489864505082
903d185fccf839df,-0.9716775791366522,-0.524094608026109,0.38176339502268014,0.3640911343851265,-1.6368978795470914,-1.7313991223357612,1.9266030189474859,-0.7385691383294777,-0.28088435512087206,-0.6330660048613043,0.09065956235833321,0.00552630898068306,-0.7129706996434938,-0.9289502042201463,-1.1612853502155291,-0.9667074860318117,-1.1703206533976784,-0.9715583095750354,-1.1587859444251691,-0.9984040345622905,-1.1109464176879853,-0.4590165069209873,-0.6435484728886872,-0.5216084057477766,undefined,1489864506029
903d185fccf839df,-0.9744495367222643,-0.543466132192107,0.2758538544460737,0.30221832229003237,-1.6171493408811402,-1.7534896268187978,1.9331854238258837,-0.7216355098477644,-0.27246055289725846,-0.6461293177720757,0.08451212077689624,0.03312205975246201,-0.7173225824420678,-0.9113593678898797,-1.1549695622485145,-0.9687280956435277,-1.155140887071414,-0.9612482774343412,-1.156609936022308,-0.9859004974118606,-1.1030624064391215,-0.4617883437585392,-0.643302966503382,-0.5245518428910659,undefined,1489864506573
903d185fccf839df,-1.034048194809066,-0.6227131861664867,0.20120620829193844,0.27276600969400616,-1.6297493200233346,-1.770812177460866,1.9378112434045887,-0.723710444406737,-0.2615664968368189,-0.6518527306026209,0.07566042867990207,0.06182461229096871,-0.6999150512477719,-0.8956201912143346,-1.1644432441990364,-0.9626662809407405,-1.1575697267465772,-0.9538513987706775,-1.154293991707767,-0.9735663434171236,-1.0960729540780705,-0.463897993290947,-0.6462016800829672,-0.5288786685192642,undefined,1489864507546
903d185fccf839df,-1.043750322401986,-0.5968844970211533,0.20375825153804822,0.2599528728374966,-1.6005790832302398,-1.7887426602523118,1.9283544670067523,-0.8049171095364,-0.2523124916560813,-0.6439429152205026,0.06379276477028334,0.03866502791206432,-0.8087121212121212,-0.9187660324103145,-1.1739169592796106,-0.9384189797325092,-1.168121818747668,-0.9624705351045346,-1.1623333273010792,-0.9616479464397631,-1.101086919970227,-0.4631069345518563,-0.6495956964435228,-0.5315686751685532,undefined,1489864508240
903d185fccf839df,-1.071470588366301,-0.560489537909635,0.2248124812499792,0.27301855077965276,-1.6220453346419645,-1.7939950942486935,1.9193342337937942,-0.877082449146934,-0.24374727843130425,-0.6410706425450615,0.08364157051871521,-0.0074239912975528465,-0.8609347147950089,-0.9113593678898797,-1.1802327435655084,-0.9303365695503667,-1.1643813316407028,-0.9602223400160104,-1.1620814421706893,-0.9547494427182791,-1.0988742241724188,-0.46148609278439057,-0.6504831519332303,-0.5321319228879547,undefined,1489864509039
903d185fccf839df,-1.0576104381314386,-0.5886663747314309,0.23565853797747105,0.2599528728374966,-1.6403435898954577,-1.8073346477082834,1.9131778560289858,-0.9387068829855821,-0.2672500569210503,-0.665774033791759,0.07343893217631037,0.010623491941819873,-0.843527183600713,-0.9335793711642648,-1.1791801318702961,-0.904068651664239,-1.1763303733084862,-0.962451536212599,-1.1657407742469574,-0.9315593844550509,-1.096607923349521,-0.46398605922853026,-0.6482706061705635,-0.5351992156719151,undefined,1489864509568
903d185fccf839df,-1.050680354387655,-0.6156690646450147,0.243953059732752,0.2646715091045955,-1.6158944890532831,-1.8169148079639599,1.9544395132269403,-0.6755339771471702,-0.26280238345006957,-0.7005860874212937,0.0862588335472027,0.008338606463586992,-0.8391753008021391,-0.9233952090675139,-1.1581274635942556,-0.871738897876783,-1.1738806557769679,-0.9536994078677333,-1.1536712754174017,-0.9159607595141335,-1.085237007775363,-0.46425489348637594,-0.6510426870121394,-0.5327614695890209,undefined,1489864510544
903d185fccf839df,-1.0534523809840866,-0.6544120545210262,0.27840589769218343,0.2689412863849901,-1.6145470627712517,-1.8232899354327812,1.9367198807285455,-0.8052819250743205,-0.2938577909253668,-0.6986467575703131,0.10027501385254521,0.0319682327257989,-0.8348234180035651,-0.8900651895863149,-1.1539169284666009,-0.8838625696794398,-1.1669283062477942,-0.9509699089656041,-1.1474511107315475,-0.9090006623608844,-1.079633209985934,-0.46795907329152875,-0.6559108114315251,-0.5351082419186756,undefined,1489864511063
903d185fccf839df,-1.050680354387655,-0.6567601729694965,0.20439613528110095,0.22409113372326733,-1.6210579096267663,-1.8352179694144293,1.9248305240803363,-0.8965311251967201,-0.3101566123228781,-0.664643376681404,0.10297474352147915,0.04042108621489585,-0.9523242535650625,-0.8946943565304334,-1.1507590308019766,-0.8394092076849504,-1.1752080954099167,-0.9482087454724313,-1.145827850498051,-0.8883513471116503,-1.0743728633635536,-0.4714367166316358,-0.6509817247063489,-0.5357036685736516,undefined,1489864512145
903d185fccf839df,-1.0534523809840866,-0.6567601729694965,0.13038688114391733,0.11527689272054442,-1.6337093168440464,-1.8355347460948386,1.9075684784321372,-1.0140900615124198,-0.3168908008403649,-0.6502798129501719,0.10513558786829988,0.0686224339504741,-0.9610280191622104,-0.8928426904003247,-1.1518116645838903,-0.8394092147511308,-1.1770977317017344,-0.9489433670109855,-1.143574877365176,-0.8750778870965643,-1.0717643169977102,-0.4711741337909532,-0.6519901733368618,-0.5372275671578147,undefined,1489864512607
903d185fccf839df,-1.0312761509599295,-0.6508900229882827,0.1807898623230602,0.1995196478489621,-1.6392533062694479,-1.8253769342920563,1.9202967334813144,-0.9158887246826118,-0.3205933633061657,-0.6434502951431408,0.10278028580901662,0.13467353259340376,-0.8696384803921569,-0.891916842765649,-1.1602327237958492,-0.8192031257001512,-1.1782692514846627,-0.9496019930648476,-1.1503128061843622,-0.8434956755670044,-1.0683656770318644,-0.47150002931608104,-0.6526849352757351,-0.539753550173948,undefined,1489864513636
903d185fccf839df,-1.0479083277912236,-0.6690874879300457,0.11762666491336843,0.13673850466971416,-1.6382247365736031,-1.8225725303335547,1.9083337454786886,-0.992663861519318,-0.32372012850949944,-0.6408757442806763,0.10309078021196837,0.08230540582156222,-0.669451871657754,-0.8983976920283444,-1.1591800863328188,-0.8091000917739319,-1.1810769914791603,-0.9510965678612986,-1.1492492909555756,-0.8275428861923502,-1.0653509422700647,-0.4716378147587881,-0.6541568530255903,-0.542515605584337,undefined,1489864514107
903d185fccf839df,-1.0479083277912236,-0.6508900229882827,0.10295279745366133,0.10865608094357844,-1.647224721420247,-1.8219110266910559,1.9040156060963382,-1.0202124686974348,-0.3304689860187377,-0.6337244816971375,0.1066205602034598,0.066472411339485,-0.5911179812834225,-0.890991024270216,-1.1560221886681945,-0.7888939885905915,-1.1820733740163047,-0.953433424150233,-1.1547068034332668,-0.799486918454593,-1.0616504720158257,-0.47308297761846163,-0.6579493827821126,-0.5432841697202657,undefined,1489864515121
903d185fccf839df,-1.0271181283179873,-0.6825888036588452,0.0691378432372826,0.141019379746598,-1.6382144506144964,-1.8105024133979313,1.9298928920815281,-0.8336013960607492,-0.33591391209327603,-0.6354524923038624,0.10558080259251129,0.07626327230028802,-0.5519510360962567,-0.8928426904003247,-1.1560221886681945,-0.8050588442857783,-1.1911626469839915,-0.9580184755941314,-1.1557703187354582,-0.785628317418312,-1.061424449108051,-0.4734816054228547,-0.6594049569317509,-0.5414415081168625,undefined,1489864515667
903d185fccf839df,-1.0243461017215556,-0.719570777768485,0.0857263784739456,0.10732603158403116,-1.6285356101894246,-1.798404345531894,1.9264425836520938,-0.8435006422225809,-0.3292351356149202,-0.630333577015511,0.10974658931701832,0.06130222683346989,-0.8217677696078431,-0.9067301912326803,-1.1591800900139355,-0.7828321809539847,-1.1984858090586055,-0.9654343527400173,-1.1545598703559201,-0.7710151931878916,-1.062164912230762,-0.4737338142086389,-0.6652307510480541,-0.5426596781507044,undefined,1489864516551
903d185fccf839df,-1.0479083622966332,-0.7101785377985428,0.08636426221699833,0.141019379746598,-1.5986659451775003,-1.8073020393024344,1.9299218152057802,-0.8248860667074251,-0.3364079266627409,-0.6309665489897723,0.10226102296060523,0.07822157822439585,-0.9001016599821747,-0.9169143695178994,-1.1623379876785598,-0.7828321668216238,-1.2102931413771225,-0.9684235021446731,-1.1559172516659955,-0.7760350862149086,-1.0644715921624124,-0.4729817172560751,-0.6671673877064153,-0.5423919937680636,undefined,1489864517127
903d185fccf839df,-1.0534524154894962,-0.6796537578962306,0.01809697831508699,0.10010408721332618,-1.6003425138927962,-1.8019075208081636,1.9454955228402313,-0.7172775983250279,-0.3313918202018463,-0.6153678349787763,0.11111867744044698,0.04474812889493588,-0.8783422459893049,-0.9085818638381762,-1.1623379987219105,-0.8070794609636748,-1.212317889608122,-0.9705513713586933,-1.1582891704797844,-0.7744336482519772,-1.0650755879879577,-0.4738863723685192,-0.6692778296038716,-0.5449174992355779,undefined,1489864518067
903d185fccf839df,-1.002169854444694,-0.7107655527966642,-0.013803816398234687,0.0338112225323037,-1.591393957209261,-1.803880386333725,1.914093008778942,-0.9266799115504252,-0.33569647531957303,-0.6140116127600849,0.11248031052405374,-0.05513117148707501,-0.9349167223707665,-0.8928426904003247,-1.1760222158000875,-0.7929352290125646,-1.196461060827606,-0.9631101625322211,-1.1633968424197587,-0.769968099072554,-1.062918906891654,-0.4719237314325465,-0.6703566743158926,-0.5438816437101321,undefined,1489864518631
903d185fccf839df,-1.0409783130582593,-0.6743706229131381,0.05446346750367665,0.10608649927432588,-1.5975550901614146,-1.7949198028610278,1.920370356455557,-0.8737418976227728,-0.32886677948754633,-0.5851787460634851,0.10064894509581947,0.028953893757461283,-0.9653799019607844,-0.8909910177948287,-1.1770748495820011,-0.7828321738878042,-1.194509585112135,-0.9648010584996215,-1.1610179267216885,-0.7698911067241619,-1.0626450654665902,-0.4701223528089023,-0.6713573557077601,-0.5435150353889358,undefined,1489864519550
903d185fccf839df,-1.0423643091037702,-0.6690874879300457,0.06211959724200599,0.09793870845683429,-1.6135802055431914,-1.7871378144026668,1.9098905755113835,-0.9369733043853856,-0.30787003978562005,-0.5996175199409055,0.11412732855960098,-0.016375221736813612,-0.9740836675579323,-0.9215435396997116,-1.1781274870450318,-0.7848527905657007,-1.1959109516039232,-0.9704880418665529,-1.1617455951385016,-0.7689056061079012,-1.0657029117303294,-0.47006237610350426,-0.6717729761182522,-0.5419268705498554,undefined,1489864520145
903d185fccf839df,-0.9910817480589679,-0.6643913679450746,0.06467214876201462,0.07286784974886724,-1.6026979380324802,-1.7823535571787514,1.9360019239562947,-0.7557533502648411,-0.3082305558464949,-0.5868313884309079,0.11208432767719681,-0.05592796420985057,-0.9175091911764707,-0.9048785218648779,-1.1791801245080622,-0.7929352078140235,-1.1886782756004386,-0.96435141949299,-1.1577294257809279,-0.780408244681267,-1.0639569961353903,-0.47017294578242563,-0.6706805661791743,-0.5399679841495215,undefined,1489864521039
903d185fccf839df,-1.0423643091037702,-0.6685004729319243,0.04106536753007502,0.04784887572734385,-1.6257481857898688,-1.7826470413899678,1.90874135715914,-0.9410953394242212,-0.30016691226172104,-0.5851514923703577,0.11543550773015081,-0.0026087058655767407,-0.8957497771836007,-0.9095076985220774,-1.172864329178814,-0.7868733860450559,-1.185362436772704,-0.9638194525341424,-1.1561201593159944,-0.7762968596528725,-1.0624439752512973,-0.46967446072794716,-0.6692632955371114,-0.5402647793194922,undefined,1489864521644
903d185fccf839df,-0.9564313810981644,-0.6532380829807682,-0.03485753783626682,-0.018557556361999333,-1.5775288366971696,-1.787773697033056,1.9218535656090527,-0.8552204695404529,-0.29711522078586905,-0.5951160941401066,0.11242568134580781,0.028135821571174436,-0.8696384803921569,-0.9159885380716919,-1.1749695930615243,-0.7929352148802039,-1.1939447125247045,-0.9696267622185107,-1.1568688179452236,-0.7703838559149206,-1.0644717057181605,-0.46898636247680636,-0.6694300905824122,-0.5412163762913026,undefined,1489864522578
903d185fccf839df,-0.9578173943963801,-0.6591082329619821,-0.03932374058543364,-0.020078497523505514,-1.5674591396546023,-1.7948429378621893,1.9286621356803675,-0.81996490658269,-0.2959975134618389,-0.5905419396067422,0.10709402062789265,0.07318332267408831,-0.852230949197861,-0.9169143727555931,-1.1812853920718898,-0.7868733931112363,-1.2072454877556114,-0.9697850857163222,-1.1566379232413468,-0.7713693562350106,-1.0650511272528151,-0.4713559885564015,-0.6688372066400218,-0.5411403785385556,undefined,1489864523145
903d185fccf839df,-0.9605894382455165,-0.6638043237189608,-0.08781256226151947,-0.12666195590507814,-1.5343803369386166,-1.814101087760744,1.9301032732160546,-0.8285908155953573,-0.2883424473317007,-0.6009144343561585,0.10725188979499815,0.03827267073370026,-0.5954698640819964,-0.9076560291542751,-1.177074853263118,-0.7848527905657007,-1.1972796232517866,-0.9689238053485136,-1.151810123791493,-0.7639473057318351,-1.0617270555887481,-0.47104597285418903,-0.6665075925081373,-0.5397651658884376,undefined,1489864524152
903d185fccf839df,-0.9758355845258898,-0.7025473720509571,-0.04060001634543796,-0.020078497523505514,-1.5331769106511848,-1.8256494553580134,1.9419426599321283,-0.7642521915983003,-0.2868211853125222,-0.5974666551328666,0.10439287392797826,0.011399388786477956,-0.5954698640819964,-0.9076560291542751,-1.1749695856992906,-0.7808115854746294,-1.1972796232517866,-0.9697344222444164,-1.153888176511759,-0.7619763046877859,-1.0626571445569393,-0.47256404420794784,-0.6641987977553784,-0.5391576480544191,undefined,1489864524732
903d185fccf839df,-0.9827656855223783,-0.7401163319307259,0.04999726475450982,0.015120051052189476,-1.522274072214519,-1.8275687482307064,1.957574228480388,-0.6619067768296167,-0.28319765951923254,-0.5956344798194488,0.10600467728886506,0.06088342725831167,-0.5693585672905526,-0.892842687162631,-1.1770748569442349,-0.7787909829290938,-1.1990810059063937,-0.9647503956976522,-1.155322522857702,-0.7612371789967309,-1.0607982406966328,-0.47338766027424806,-0.664113705978193,-0.5391066769551763,undefined,1489864525627
903d185fccf839df,-0.9689055525402207,-0.7624229603153233,0.06530952423116851,0.03528985966794943,-1.5187872210765192,-1.8421637610674224,1.9434653208514272,-0.7748989645295958,-0.2844752634646694,-0.5854372417322409,0.10834798413946324,0.11352259018399996,-0.5911179812834225,-0.9002493516830657,-1.184443289736514,-0.7989970366491715,-1.1966489316671836,-0.9723499281658893,-1.1581142504158473,-0.7721546768046859,-1.0674719824375252,-0.4725327155649257,-0.6680286292105584,-0.5376453722276263,undefined,1489864526066
903d185fccf839df,-1.006327911592046,-0.7459865111399321,0.09721031894449018,0.028601215621008445,-1.5383094743316044,-1.8482943187576852,1.9408591924278458,-0.8036148914741691,-0.2685543765133261,-0.5695212879778268,0.10229946588223944,0.014181102677398442,-0.7042669340463459,-0.9345052123235533,-1.2044433058250563,-0.8192031468986923,-1.2137101672950061,-0.9817480163782822,-1.1764249047309112,-0.7778982962964975,-1.0809237292320932,-0.4734716297407578,-0.6620480967813814,-0.5333857603222824,undefined,1489864527027
903d185fccf839df,-0.9855376776134,-0.7201577927666064,0.08317433522783582,0.028601215621008445,-1.5396054717823533,-1.8417701202978516,1.9406014727359302,-0.7954001191653804,-0.26551399857138347,-0.5810891888296271,0.10168507118472668,-0.038902529995713066,-0.7042669340463459,-0.9511702074945315,-1.2097064820968586,-0.8050588584181392,-1.226570498416985,-0.9849904835687902,-1.1822672417028295,-0.7703530577047217,-1.0835694129243696,-0.47289777684791023,-0.661430610242751,-0.5335592571416582,undefined,1489864527626
903d185fccf839df,-0.9550453677999486,-0.7254409862056835,-0.005509294642953765,-0.018785430370964803,-1.5443883216314305,-1.8437546323126106,1.9420373464746026,-0.7884936292037943,-0.2618266567128435,-0.5820744670168609,0.10010198852918478,-0.07212916628522507,-0.7564895276292335,-0.9567252188356321,-1.2139170061811628,-0.8050588584181392,-1.224716260466544,-0.9882012859523247,-1.1868571496868663,-0.7736021295727274,-1.0883622934914885,-0.4720593609550234,-0.6590681285323383,-0.5325829587803337,undefined,1489864528670
903d185fccf839df,-0.9702915313330268,-0.7389423311624754,0.03277135404869294,0.0035975911017419493,-1.5420740399998276,-1.8519395787203026,1.9491404503437582,-0.7518657872010438,-0.25940530053708916,-0.5866703606444426,0.10721664250404003,-0.06766711034288804,-0.7521376448306596,-0.9530218801000274,-1.2170749112080208,-0.7969764199712751,-1.2228537111674025,-0.9861684110097352,-1.1861854557509492,-0.7716773236630823,-1.0863062424923804,-0.4725238826382078,-0.6591615936795554,-0.5336929084676322,undefined,1489864529123
903d185fccf839df,-0.9758356190312996,-0.7342462111775043,-0.008061337889063547,-0.018785430370964803,-1.5140146581748064,-1.8535118156639574,1.950818269143652,-0.7376905466521455,-0.2544471683014156,-0.6014720804398319,0.10162661477296467,-0.03748726053473728,-0.8043602384135473,-0.9539477147839286,-1.2139170061811628,-0.7787909405320115,-1.2131656359497565,-0.9865800522823258,-1.1837155814992482,-0.7780060850780638,-1.086264246159176,-0.47011304169306317,-0.662073837080263,-0.5323546195306248,undefined,1489864530097
903d185fccf839df,-0.9481153185615747,-0.7272020312000477,-0.017631627130449936,-0.02285842196381556,-1.5143438007841166,-1.8519069696639074,1.940864453082295,-0.8034757146393599,-0.25069866089928255,-0.5827864554464925,0.10030325803797283,-0.04095731262466946,-0.7913045900178254,-0.9530218801000274,-1.2107591085165386,-0.7929352290125646,-1.2163363061439698,-0.9891258955188307,-1.1857026757698732,-0.7866600117150476,-1.0899805205355362,-0.4697314393790318,-0.660621531296825,-0.532146300318582,undefined,1489864530613
903d185fccf839df,-0.9550453850526535,-0.7183967770002345,-0.056550159565149374,-0.02249385260173496,-1.5047163881640597,-1.8584474730578504,1.9375771935151285,-0.8297602482761234,-0.24694003180384597,-0.5838531633420365,0.0932725208129799,-0.01853939869056142,-0.7651932932263815,-0.9567252188356321,-1.2044433058250563,-0.8050588725504999,-1.2119425252064155,-0.9877136492448721,-1.1836666039515698,-0.8032287389614027,-1.0913728364506317,-0.47089776017228097,-0.6638632777098898,-0.5292302008390658,undefined,1489864531594
903d185fccf839df,-0.9481153185615747,-0.716048717007749,-0.056550159565149374,-0.03331696845560564,-1.5045003886642878,-1.8597984316211855,1.9426290559202493,-0.7953129909386187,-0.24628409492927805,-0.5907859967417678,0.09302771768510244,0.03765972610382615,-0.7651932932263815,-0.9557993841517309,-1.212864376080366,-0.8050588725504999,-1.211742005327055,-0.9875109950693423,-1.1857866375982664,-0.8119134621123344,-1.0939218312606571,-0.47076762503609376,-0.6627778267200488,-0.5275982063173041,undefined,1489864532111
903d185fccf839df,-0.92039501809185,-0.7090045370302923,-0.020183670376559715,-0.010149402561886314,-1.5269232081281285,-1.857157074242126,1.9548260959073789,-0.7145259337741694,-0.24965321076058586,-0.5976927074106461,0.09108058461143197,0.0658865896737188,-0.6085255124777184,-0.9576510567572268,-1.2118117386173353,-0.8050588513519588,-1.2087723739817735,-0.9788158633393799,-1.1824141748596981,-0.8258028601472065,-1.092480515253627,-0.47006486015700494,-0.6576293421328051,-0.5265941005900785,undefined,1489864533190
903d185fccf839df,-0.9217810313900657,-0.7090045370302923,-0.04698037859766183,-0.008162369665976181,-1.5383300457416853,-1.8572735359737877,1.9451142217646773,-0.7803812770095067,-0.24984741839621027,-0.6080985043080529,0.09358675036507927,0.023299085554854677,-0.5911179812834225,-0.954873565656298,-1.212864372399249,-0.8091001059062927,-1.2087723739817735,-0.9766943272905035,-1.1825681047418042,-0.8315926759984925,-1.0918074573825427,-0.468495982166753,-0.660312018475329,-0.5280349371919799,undefined,1489864533703
903d185fccf839df,-0.916236943691793,-0.6872849528718087,0.03277135404869294,0.006146298475260501,-1.5712957055321808,-1.8636579808108282,1.947349555756298,-0.774235339620847,-0.2449015763110503,-0.6065960376108961,0.09507254958195313,-0.030656135380934483,-0.5432472704991087,-0.9576510567572268,-1.2086538372715943,-0.8171825160884352,-1.2054146502637615,-0.975161754865208,-1.1824141749392199,-0.837567272845114,-1.0922868660719784,-0.46810334872357234,-0.6597169685655132,-0.5291899701385117,undefined,1489864534580
903d185fccf839df,-0.9176229569900087,-0.6855239078774445,0.03277135404869294,0.00758567988073535,-1.5671608547585696,-1.8638047229707997,1.9440728195930739,-0.7953827990947508,-0.24582381015846835,-0.616216290448994,0.09545320836895563,-0.0703067301936953,-0.47361714572192515,-0.9548735462301361,-1.2107591121976553,-0.8030382700049643,-1.2054146502637615,-0.9785562128645369,-1.180825898876331,-0.8332403093112252,-1.0921367285002714,-0.4678618423676923,-0.661019907842346,-0.5288172728147023,undefined,1489864535096
903d185fccf839df,-0.9231670101828717,-0.669674502928167,-0.06229212980042167,-0.019714607961185706,-1.5752351262035773,-1.881884277771661,1.9454850214342474,-0.8047321271582488,-0.24047804046015306,-0.6284479335045642,0.09624602200601602,-0.06234052909932092,-0.13852217023172905,-0.9650577245153553,-1.2107591158787723,-0.7929352078140235,-1.211421170974405,-0.986130413198181,-1.1792306260209169,-0.8198128649224502,-1.093553183426705,-0.46732937615842296,-0.6601438317491669,-0.5265516866740125,undefined,1489864536127
903d185fccf839df,-0.9190089702882245,-0.6878719970979223,-0.11141934349345908,-0.10092430388793437,-1.5854488236088404,-1.8942525380520123,1.9370301964897336,-0.8745130727603215,-0.2395623713780438,-0.6209844952647405,0.09975890897671649,-0.14504459370295136,0.022497493315508033,-0.9724644084619518,-1.200232781740752,-0.7767703450526563,-1.2044641583548688,-0.9850538127564143,-1.1747176829565238,-0.8048917712446116,-1.0896083319381031,-0.46731942346574645,-0.6604140351804333,-0.5245775136110279,undefined,1489864536597
903d185fccf839df,-0.9065348506042827,-0.6591082329619821,-0.036134321870169975,-0.04841838924162044,-1.5822088290237184,-1.9083630690806748,1.953995075917823,-0.7740899311867074,-0.23030579858799968,-0.6360298762154535,0.10938623617464041,-0.2930030308104198,-0.03842886586452762,-0.9733902334327721,-1.204443309506173,-0.7727291187630438,-1.2057354846164114,-0.9926090144971028,-1.1759001440313845,-0.7966074079310672,-1.0923903488218083,-0.4684105232219325,-0.6584188963538724,-0.5219403715380602,undefined,1489864537587
903d185fccf839df,-0.8843586033274209,-0.744225466145568,-0.06420628930347871,-0.08128616832363962,-1.5966293760115837,-1.9203143954535953,1.9450432165473979,-0.8460112593522167,-0.22839292433966424,-0.6417688343657608,0.09484067201590972,-0.3869681855885605,-0.12111463903743315,-0.9780194036145843,-1.200232785421869,-0.7727291470277654,-1.1951612615157687,-0.991443752921366,-1.175298418381629,-0.7844580342585503,-1.0891288593418316,-0.4674047521467348,-0.6599547736301881,-0.5211985651431869,undefined,1489864538139
903d185fccf839df,-0.8912886870712046,-0.7606619153209591,-0.029753959617946104,-0.04357674241638491,-1.5923916692878535,-1.9350095650697428,1.9654320990376326,-0.7242848492170378,-0.22444938194108113,-0.6562188063751652,0.10688616794569805,-0.3143377293580045,0.6274092023172906,-0.9937585738147422,-1.212864376080366,-0.7464612291416377,-1.2047243402431036,-1.0045339473198254,-1.1802801478481646,-0.7739254974925165,-1.094761552762269,-0.468297809130637,-0.6582880140110816,-0.5219800367874617,undefined,1489864539085
903d185fccf839df,-0.916236943691793,-0.7929477402176354,-0.06229212980042167,-0.0721035310653977,-1.5947882369558837,-1.951514553686372,1.9453561594932456,-0.8762594095568488,-0.22717645721202234,-0.6418121788392546,0.10441719400193102,-0.2525921790111189,0.7884288658645277,-0.9845002464018924,-1.2065485807511174,-0.7323169901243473,-1.1868710582329318,-1.005794203183603,-1.1812527046150763,-0.7412653945797819,-1.0872555812965863,-0.46821846710042386,-0.6634852439261801,-0.5243642217076718,undefined,1489864539594
903d185fccf839df,-0.9384132254740645,-0.7765113202702366,-0.14650955692204443,-0.17070196262799525,-1.612767634570916,-1.9477621499401865,1.9411379568326015,-0.9063226398939715,-0.24397065997300935,-0.6409978168397131,0.1034919018118377,-0.304628325608853,0.5882422571301248,-0.9706127293810686,-1.1907590813846456,-0.6716987512361299,-1.1274344044777393,-1.0016777897600782,-1.1715481277639643,-0.5198665478108729,-1.0307263223316219,-0.4683349057456089,-0.646067340244571,-0.4745368334654797,undefined,1489864540569
903d185fccf839df,-0.9564313983508692,-0.7806204544850787,-0.28623455998892844,-0.20785272253563944,-1.6444167244363042,-1.9385756305265651,1.9360072024186143,-0.9349786911501429,-0.2492937322591587,-0.6433212617390861,0.10544913760815448,-0.30236221335004443,0.22703598484848486,-0.9706127293810686,-1.1802327509277422,-0.6333071756797062,-1.0976379286781408,-0.9993599322855661,-1.169987839097509,-0.47233154768747265,-1.0191359301618967,-0.4682193003080143,-0.6446830249555789,-0.47656832518878883,undefined,1489864541161
903d185fccf839df,-0.952273358456222,-0.7659450210760592,-0.39980023030386425,-0.31090746233089417,-1.616007629396101,-1.9214603808280388,1.9452351885339179,-0.8545130606260545,-0.2350365823962277,-0.6570498567549153,0.10488104778188455,-0.2658310161864229,-0.23861547459893048,-0.9863519028189202,-1.1728643144543462,-0.5868332323382224,-1.097578334559249,-1.0013548096159213,-1.1693511292710288,-0.44506090125981773,-1.0147767687779508,-0.46888722016141227,-0.645467884753829,-0.47553103695095994,undefined,1489864542101
903d185fccf839df,-0.963361464841948,-0.7630099753134446,-0.4750857602010522,-0.4215315462738623,-1.6185687682367522,-1.90811849802277,1.9396994443865296,-0.8748860698289053,-0.23176739949664668,-0.6665357561469517,0.10038767546756111,-0.18145127524519233,-0.23861547459893048,-0.9993135948689237,-1.1781274870450318,-0.5565240810963019,-1.0994125118564861,-1.0030393726119606,-1.171779022663587,-0.4392556870573215,-1.0142941549792348,-0.46933430789787545,-0.6488307817895299,-0.47149063935748803,undefined,1489864542673
903d185fccf839df,-0.9883097042098316,-0.7653580060779379,-0.4604113844674463,-0.39781574289100735,-1.6434190120336276,-1.92004420302116,1.9452509600220473,-0.8517682243856428,-0.23697870310135208,-0.6564227838682486,0.09842485462477836,-0.11046450457953234,-0.26037488859180036,-0.994684411736337,-1.1760222121189705,-0.5565240810963019,-1.0974373668034372,-1.0089416758922867,-1.1706805233498319,-0.4383625773695224,-1.016248043627434,-0.46807895851372533,-0.6478419334254145,-0.47009208726107027,undefined,1489864543666
903d185fccf839df,-0.9813796377187528,-0.7125266270190207,-0.47827568719021474,-0.47096734726072237,-1.6186716261073713,-1.9307913123890976,1.9323780600209997,-0.9423394105538174,-0.2528754215130749,-0.6564683630222924,0.09751361578824516,-0.10610172851301711,-0.26907865418894833,-0.9928327553193093,-1.1728643144543462,-0.5262150146485461,-1.07474544711494,-1.0032863572603525,-1.1700368166390702,-0.4139560410544497,-1.0081059353548132,-0.4666988845958281,-0.6486664536088447,-0.4717805604677359,undefined,1489864544108
903d185fccf839df,-0.9841516643151843,-0.7436384511474465,-0.49805414941604026,-0.4594789294122537,-1.6153493466341204,-1.9418528697821777,1.9262479813383495,-0.9934363423130631,-0.25647267078660496,-0.6509023396051785,0.09597533620883254,-0.165515699525633,-0.852230949197861,-0.994684411736337,-1.17391694823626,-0.4696379879175803,-1.0598708187422938,-1.0051989062730715,-1.1698618963549192,-0.3825278145716943,-1.0019909422814408,-0.4670477240927547,-0.6460095200385918,-0.47293388154652843,undefined,1489864545112
903d185fccf839df,-0.9841516643151843,-0.7436384511474465,-0.4948642224268777,-0.44907933270417427,-1.6072030748517243,-1.9422767913787213,1.9239968653833814,-1.008183775597437,-0.2590972364520279,-0.6422924974611214,0.09636404664792472,-0.18681114971867652,-0.9566761363636364,-1.0057944149923763,-1.1760222121189705,-0.43326707143613535,-1.0509221983666588,-1.010360255586076,-1.172499694000373,-0.3523930567121508,-0.998685337039882,-0.46649743061291316,-0.6465362505393007,-0.4726444467024933,undefined,1489864545606
903d185fccf839df,-0.963361464841948,-0.7553787364958782,-0.49805414941604026,-0.4594789294122537,-1.5951585228494771,-1.9509834880525654,1.9254590402992557,-1.0040280335984713,-0.2658553171626997,-0.6279452867638642,0.09365441231036575,-0.15536327306706488,-0.16028158422459893,-1.0048685867838625,-1.181285381028539,-0.4494318918004203,-1.0543210540489134,-1.0136280545900502,-1.171219277493717,-0.3531475806601797,-1.0000168587606113,-0.4657632572425823,-0.6458462551408161,-0.4738101696837952,undefined,1489864546651
903d185fccf839df,-0.9619754515437322,-0.7518566465071498,-0.498692033159093,-0.47096734726072237,-1.589933388457858,-1.953506054249182,1.9291092137919268,-0.9799592351865044,-0.2700998294411519,-0.6138270717537896,0.08992980844802667,-0.1293033304607088,-0.04713263146167557,-1.002091082732159,-1.184443289736514,-0.4211433855011178,-1.025605430644201,-1.0147743174011947,-1.1708834305227,-0.3359475170159038,-0.9969573541771242,-0.4656570787203799,-0.640909400336648,-0.47373390638016666,undefined,1489864547096
903d185fccf839df,-0.963361464841948,-0.7506826165109071,-0.5025203521652071,-0.45484027696297885,-1.5748648419063997,-1.9573376526098891,1.919399968928928,-1.04659397139148,-0.2725191283245585,-0.5942344203827322,0.09412586567937117,-0.21544088812999918,0.03555314171122996,-1.004868573833088,-1.1949696128311835,-0.41306096118661456,-1.017127337720334,-1.022139530859245,-1.172541674761643,-0.33750276040984795,-1.0007394641760725,-0.464939019149868,-0.6381223320835688,-0.4710185108096322,undefined,1489864548051
903d185fccf839df,-0.963361464841948,-0.7142876573993887,-0.5108143656465891,-0.518456430810484,-1.5770351239835172,-1.9634751980255072,1.918242855404924,-1.0571028394935138,-0.27084659996394905,-0.5987529007916391,0.09423073661946785,-0.211799761081396,0.19657280525846704,-1.004868573833088,-1.1939169827303866,-0.4069991252852862,-1.033064845123241,-1.0230451421207019,-1.1743678424126898,-0.3388116284074054,-1.0021140462701856,-0.46472281572583674,-0.6374058136817309,-0.47041666183176245,undefined,1489864548586
903d185fccf839df,-1.006327911592046,-0.720157851222591,-0.5433530441029636,-0.5214033363882374,-1.5483997433964123,-1.9709171175154763,1.9101825020274796,-1.1138658285608107,-0.2721394273411712,-0.5884756376715842,0.09976713175317053,-0.18481349610684705,-0.4692652629233512,-1.0048685900215562,-1.1949696275556512,-0.39487548174735093,-1.052495592878966,-1.0319999247518308,-1.1772435317992285,-0.327647755687707,-1.0048366388660903,-0.466967999723226,-0.63608571265758,-0.4662820061628524,undefined,1489864549569
903d185fccf839df,-1.0340482120617709,-0.7272020165860515,-0.5184704953849185,-0.4856764611635246,-1.536818048655129,-1.9818202862448908,1.9209410327111027,-1.0489830499721444,-0.27331071080505387,-0.6004155556708208,0.08992313797506633,-0.1483235000823977,-0.517135973707665,-1.0076460940732597,-1.1970748877572448,-0.38477241249022975,-1.0693662760685991,-1.0419933097252654,-1.1779712000386469,-0.3068290573904783,-1.0046277033407776,-0.46724176461815964,-0.6340396742725944,-0.46650613689891546,undefined,1489864550065
903d185fccf839df,-1.0201880618269084,-0.920330126335942,-0.3506735248847257,-0.3562106332731578,-1.5277460633710704,-2.046943485194955,1.9177878936443433,-1.129005430080447,-0.2700821378387049,-0.5596055910873162,0.08952979856774923,-0.1990442891759181,-0.49537655971479505,-1.0224594198764354,-1.1928643563107069,-0.37466937149783014,-1.0666998180135567,-1.0637406380587426,-1.1778732446252027,-0.2959731537547157,-1.0123857612960787,-0.4669092489087712,-0.6235658094954166,-0.46542287878094063,undefined,1489864551068
903d185fccf839df,-1.0077139248902618,-0.9320704555263621,-0.15671772990648355,-0.19284829211323415,-1.5625322904871013,-2.075006160009305,1.951728173809421,-0.9375174771946763,-0.2872503833782057,-0.5767518764676838,0.09092955673852973,-0.2342789741511327,-0.8348234180035651,-1.0298661038230321,-1.1981275068146908,-0.4049785651368329,-1.064849926641785,-1.0708525337364772,-1.1830928656003745,-0.2898445727498021,-1.0169324417786196,-0.4672530928805394,-0.618594947073489,-0.46043778072570346,undefined,1489864551621
903d185fccf839df,-0.9702914968276171,-0.9391146501178149,-0.12417955972400797,-0.12980799545139832,-1.5470420293988165,-2.076007732595732,1.9597648647170622,-0.8849975573678605,-0.2747345101950911,-0.5900601214456394,0.10157056122699568,-0.20578914290868805,0.26620293003565065,-1.0243110892442377,-1.2012854155226658,-0.40699909702056464,-1.07485211370344,-1.069636608666688,-1.1884174387937503,-0.33531618157380694,-1.0252977644839942,-0.46906585323440697,-0.6228382787564263,-0.4604973715253324,undefined,1489864553079
903d185fccf839df,-0.9869237081643206,-0.9385276351196935,-0.11652342998567863,-0.13029226923068588,-1.5635197166425963,-2.0795574930169676,1.9806849685544752,-0.7478640204633649,-0.2750938681700523,-0.586955831984381,0.1035668027408697,-0.16185863947318105,0.2226841020499109,-1.0317177667154471,-1.2118117422984522,-0.43730821999776354,-1.0861791064103854,-1.0734237088861083,-1.191845876037683,-0.3602308661847377,-1.033207902409873,-0.47029893937839007,-0.6205553424216734,-0.46062567210932315,undefined,1489864553125
903d185fccf839df,-0.9841516815678891,-0.9250262609349093,-0.03677169733932387,-0.06559462353479674,-1.5583974404656862,-2.0744471421738924,1.9695240606568045,-0.8155269904840485,-0.2814175960793891,-0.6161532664607509,0.12428345977937881,-0.20273173646461434,0.2618510472370767,-1.0372727683434668,-1.2118117386173353,-0.44539067257698833,-1.1027790546040568,-1.0696112771023716,-1.191719933246157,-0.42125490573069285,-1.046298016364664,-0.46910067015795104,-0.6255710968503931,-0.45494031506549865,undefined,1489864554078
903d185fccf839df,-1.0146440086340454,-0.9303093959180018,-0.029753451344047256,-0.05401245154806782,-1.5553220168971438,-2.0719851361126773,1.9721407177219368,-0.797622234237048,-0.2856044523589629,-0.625229408888453,0.1274444227674428,-0.2695036666646478,-0.14287405303030304,-1.0493086062834074,-1.229706494504284,-0.5787507656266369,-1.131786503625312,-1.0796933232928265,-1.2049578997551516,-0.647257887755353,-1.1069739201379185,-0.470971283799586,-0.6563402171956738,-0.5080982869046047,undefined,1489864554643
903d185fccf839df,-0.931483124477576,-0.918569095955574,-0.10184905425207269,-0.09998507737291779,-1.5511460243116328,-2.060595156164294,1.9661132071357381,-0.8285556938958306,-0.2837172280796312,-0.6193274911227457,0.12365674031117715,-0.29915065855226863,-0.7477857620320856,-1.048382781312587,-1.229706494504284,-0.6110805194140928,-1.1277727973552751,-1.0751146047815319,-1.2030477704592235,-0.6661363815763295,-1.1083070313684955,-0.47082497248579785,-0.6544377656552844,-0.504814420501244,undefined,1489864555585
903d185fccf839df,-0.9855376776134,-0.9303094105319979,-0.23391792758062738,-0.2289871122700811,-1.5846773964569882,-2.052554622239279,1.9642407849745787,-0.8381592779226338,-0.28263367756101815,-0.620596086241527,0.12198561436842585,-0.24688420445606019,-0.5475991532976827,-1.049308609521101,-1.2276012269404566,-0.4817616173231548,-1.0904143711976035,-1.0840250566851126,-1.2009487271839858,-0.48939302296682785,-1.065678626023952,-0.47213690867934427,-0.6706102883882038,-0.5105492537772253,undefined,1489864556131
903d185fccf839df,-0.9495012801016759,-0.8598675230734545,-0.4731716006979952,-0.4789973651902983,-1.5751631263023023,-2.0358423313888885,1.952893169934924,-0.9031124058221729,-0.2853549215161285,-0.6398176529926062,0.128705119470678,-0.14497772402209624,-0.06889204545454544,-1.0141269239097932,-1.2149696436441932,-0.19483525031253318,-0.9300425516380343,-1.0707068760152874,-1.196057956638105,-0.10218371942867678,-0.9632824502590343,-0.4734178660059382,-0.6290301766863231,-0.5062861691635486,undefined,1489864557079
903d185fccf839df,-0.9093068944534191,-0.8140803093779977,-0.5797200415654521,-0.6015299572976193,-1.566769997999037,-2.0065637949432023,1.945571786616916,-0.9279273692238355,-0.2762473547900979,-0.6453510130327009,0.12255567386579194,-0.22084126754030306,0.031201258912655985,-1.013201089225892,-1.2118117441390106,-0.21504133229733244,-0.9503513064822618,-1.0685093446976488,-1.1940288813492934,-0.07001636698562042,-0.9547090265390142,-0.47502516453396276,-0.6373343473150386,-0.5059640451342095,undefined,1489864557623
903d185fccf839df,-0.9883097559679461,-0.7113525970227779,-0.6773355686606765,-0.7098144041327076,-1.556165444622446,-1.9696919381589362,1.9221218128949973,-1.0508766735055124,-0.2866235648198692,-0.6389184962025397,0.12404281217236712,-0.1546345379653408,-0.1298184046345811,-1.0057944247054573,-1.2002327743785184,-0.08572250086819826,-0.929679143422469,-1.0684776798242352,-1.1863323891035638,0.004712288469037324,-0.9357034654029958,-0.4745586543742676,-0.633446256394471,-0.5058462481506851,undefined,1489864558595
903d185fccf839df,-0.9647474953928686,-0.6925681170828935,-0.6964756388695503,-0.7634710434353205,-1.5746282713526394,-1.9504454340790998,1.9519148924741436,-0.8359632705909876,-0.25489832464200285,-0.6639197473295716,0.10861329525490197,-0.09223753573533418,-0.4692652629233512,-1.000239419839744,-1.190759083225204,-0.08572248673583749,-0.9079994807484377,-1.0577560061673374,-1.181392640771439,-0.008976928671123563,-0.9327070789543134,-0.47385390316750287,-0.6413792285512961,-0.508582786464386,undefined,1489864559132
903d185fccf839df,-0.946729305263359,-0.7172227616179879,-0.7226344633475997,-0.7749274605852409,-1.5834122569715823,-1.950452421978417,1.9571797652934937,-0.8023596732068897,-0.25641825871145346,-0.6709944640864874,0.07095854184466446,-0.05191371099179618,-0.6650999888591801,-0.9937585802901294,-1.1949696165123005,-0.18271164917168026,-0.9284614430952721,-1.051252073204439,-1.1833377542257406,-0.047796409250804986,-0.9401979360064313,-0.4742668673466165,-0.6423325986625988,-0.5073568085288496,undefined,1489864560081
903d185fccf839df,-0.9536593890071426,-0.7248539419795698,-0.6824396551528961,-0.7270679521522045,-1.5602180094676579,-1.9421603308303648,1.9608930477841622,-0.7691031137415205,-0.24884540869071917,-0.6545782906507474,0.07601456034879694,-0.037043542310964794,-0.7347301136363636,-1.0048685867838625,-1.2097064820968586,-0.15644374541791337,-0.9223970963742031,-1.0534116070870163,-1.186255424269559,-0.07286507800656547,-0.9468919377401431,-0.4736754651803362,-0.639768255195486,-0.5036648006540411,undefined,1489864560720
903d185fccf839df,-0.9799936589259468,-0.7506826603528955,-0.4967783819299348,-0.547058565355148,-1.5340923390459626,-1.9410749055691245,1.9669100402040274,-0.7284147481963555,-0.2522879815053056,-0.6577876456875122,0.07266563228600394,-0.08113588859703974,-0.6607481060606061,-1.0030169109406728,-1.2118117422984522,-0.19281469016407987,-0.9245179597814062,-1.0591809186110206,-1.1885713686391541,-0.0399278033988934,-0.9442895028991011,-0.4735266116534372,-0.6320944134471166,-0.5009787088504741,undefined,1489864561574
903d185fccf839df,-1.0063279288447509,-0.7506826603528955,-0.42213073577579957,-0.4272803181852117,-1.52865120445839,-1.9422744638066407,1.9517649868678246,-0.830177435211546,-0.25789802113140375,-0.6554085176437486,0.07118366241283408,-0.08961478860441942,-0.5650066844919787,-1.0094977666787555,-1.212864376080366,-0.19281469016407987,-0.9348185375650151,-1.062366389325042,-1.1868011754690033,-0.044085383602079135,-0.9461840544577507,-0.47395804541646896,-0.6304227192162224,-0.5032135025974511,undefined,1489864562123
903d185fccf839df,-1.0700845578153804,-0.8076231443986625,-0.06420628930347871,-0.07709385335198518,-1.5488420282150266,-2.0004611877742704,1.980587666350081,-0.6857777843220828,-0.24149609619632365,-0.6500258901193553,0.07943005697658699,-0.09569025760769975,-0.36917195855614976,-1.0067202593893585,-1.2076012108519143,-0.21100011307390046,-0.9566271750938188,-1.0591682525354191,-1.184324304143392,-0.05078370804432914,-0.9433092078230719,-0.4751225541750355,-0.642282981268899,-0.5106184855136052,undefined,1489864563075
903d185fccf839df,-1.0118719302794994,-0.8199504885872039,-0.10184956252597153,-0.11408005315587132,-1.5089335221853724,-2.0256006667192095,1.9408407717570995,-0.9650750612605369,-0.25077001815451355,-0.695438933082623,0.09306293653701073,-0.14370693577259488,-0.08194769385026737,-1.013201098938973,-1.2076012034896804,-0.2817214848148625,-1.0033344719500457,-1.0631136765128744,-1.191202169063888,-0.10563297163943886,-0.9597038218179288,-0.4735293131102307,-0.6426339128080503,-0.5097555450182523,undefined,1489864563641
903d185fccf839df,-1.0160299701741466,-0.8686727772732676,-0.02592564061183201,-0.04200981855506081,-1.5007255343822665,-2.060133968116106,1.962712865495874,-0.8458930474002244,-0.2648747709522465,-0.666799133008216,0.10342648462765543,-0.20790695976050988,0.205276570855615,-1.0317177667154471,-1.2054959432880867,-0.6029980668348681,-1.1374925814668089,-1.0728854084354535,-1.1916359711363789,-0.5690645798136129,-1.080805830331423,-0.4725437972480183,-0.6632358324944586,-0.5105065721313474,undefined,1489864564587
903d185fccf839df,-0.9841516643151843,-0.8880442868252696,-0.20520705985646823,-0.22740175452338662,-1.442374775109041,-2.055598939449088,1.9232841849784073,-1.1025170392249548,-0.2617789669554113,-0.6420793536115319,0.10838432624447705,-0.2373236830202803,0.2400916332442068,-1.035421111926439,-1.185495912475077,-0.6919048261547487,-1.1864099673595647,-1.0738290170987514,-1.1877317509179925,-0.710006553662473,-1.1146487521606268,-0.470726635456639,-0.665469975853179,-0.5047011434198839,undefined,1489864565142
903d185fccf839df,-0.9356411643722232,-0.9109378863659998,-0.09291664875373903,-0.11573700823617472,-1.4057885519455213,-2.0640307853724327,1.9629574387892756,-0.8360920591917378,-0.2851031649670382,-0.6476093100026953,0.09519063843654732,-0.18749421608724615,-0.05583639705882352,-1.0335694328455558,-1.1833906449112497,-0.722213956198128,-1.176350277493942,-1.075063941016183,-1.190145650749968,-0.7676429347659889,-1.1269462884477355,-0.4706652106251037,-0.6717261958106738,-0.5107509581820312,undefined,1489864566379
903d185fccf839df,-0.9467292707579492,-0.9085898263735143,-0.1146092704826216,-0.11573700823617472,-1.3983417068495556,-2.066203965449891,1.966005387812533,-0.8152548498638309,-0.2855602223152506,-0.6503060688290899,0.09713566985080377,-0.19549929110814457,-0.27778241978609625,-1.0354211022133581,-1.1823380295349204,-0.7181727299085157,-1.1802139027967853,-1.0746143020095515,-1.1857656471656364,-0.7536919432185779,-1.1224880399271022,-0.4715790773283457,-0.673465636273677,-0.5090801501510048,undefined,1489864566674
903d185fccf839df,-0.9273250845829287,-0.917395051345335,-0.1146092704826216,-0.11573700823617472,-1.3918720030462635,-2.067906639343968,1.964243418444369,-0.8270090250834883,-0.28540542288318793,-0.6540069218298779,0.097557140591649,-0.17458540037125844,-0.2864861853832442,-1.035421111926439,-1.1823380258538034,-0.7222139349995869,-1.1802139027967853,-1.073227387355276,-1.1854298002435557,-0.75510859993039,-1.122382408711383,-0.4718930065540311,-0.6729770718254762,-0.5082037630880125,undefined,1489864568794
903d185fccf839df,-0.9273250845829287,-0.917395051345335,-0.1146092704826216,-0.11573700823617472,-1.3918720030462635,-2.067906639343968,1.964243418444369,-0.8270090250834883,-0.28540542288318793,-0.6540069218298779,0.097557140591649,-0.17458540037125844,-0.2864861853832442,-1.035421111926439,-1.1823380258538034,-0.7222139349995869,-1.1802139027967853,-1.073227387355276,-1.1854298002435557,-0.75510859993039,-1.122382408711383,-0.4718930065540311,-0.6729770718254762,-0.5082037630880125,undefined,1489864568813
903d185fccf839df,-0.9273250845829287,-0.9209171413340634,-0.01380330812433584,-0.030094224803679032,-1.3877062959557385,-2.0714004980420957,1.967425483777946,-0.8070397225598254,-0.28233850363135454,-0.6497544421284335,0.10161789835886882,-0.1683787054637627,-0.5737104500891266,-1.0344952740048443,-1.1854959235184277,-0.7403994073726701,-1.1803116318075468,-1.0714034994709905,-1.1858985866028786,-0.774156476839748,-1.1255025461762138,-0.4706188311899777,-0.6735447390232306,-0.508474846805747,undefined,1489864569322
903d185fccf839df,-0.9356411643722232,-0.9209171559480596,-0.029115567600994523,-0.045355213433409945,-1.369387470252414,-2.072819004535047,1.9584394395812978,-0.8664512434027442,-0.27931705674979096,-0.621808378770883,0.10153922953506302,-0.1473065459823975,-0.6955631684491979,-1.0335694328455558,-1.1865485462569907,-0.7444406407284629,-1.1833214683556565,-1.0696492740502062,-1.1877807288449287,-0.7826564188337967,-1.1277139535353204,-0.4701803223963983,-0.671393741930417,-0.5114516100077192,undefined,1489864569673
903d185fccf839df,-0.8885166777274779,-0.9273743136203968,-0.0354959298532184,-0.03748628163339457,-1.3871405836808992,-2.0785349575426,1.9700579280440342,-0.7905139142234481,-0.2748763072626868,-0.6187264459143464,0.10716014815163463,-0.1156407678952875,-0.5780623328877006,-1.0372727748188542,-1.1876011837200213,-0.766667311126437,-1.1784753115879119,-1.07206845850175,-1.1872279807122668,-0.7887696016221231,-1.1306011912229892,-0.4699803652840208,-0.6675704291370028,-0.5116671259931093,undefined,1489864570685
903d185fccf839df,-0.9065348506042827,-0.9168080509612099,-0.10631525700123952,-0.11573700823617472,-1.408658261525282,-2.073853186918567,1.9560436933397642,-0.8845261719519528,-0.2781216516450512,-0.6308830330690103,0.11680620491130066,-0.10285999241108217,-0.517135973707665,-1.0317177667154471,-1.1844432786931633,-0.7585848868119337,-1.1785552263542265,-1.069674605902429,-1.18493302669578,-0.7773131579812268,-1.12582170314122,-0.47078081978429515,-0.6671189190844379,-0.5130447046750113,undefined,1489864571164
903d185fccf839df,-0.9176229569900087,-0.9138729759706029,-0.08653679477541401,-0.12629865835118242,-1.3934251446814325,-2.06909222180686,1.967927786190959,-0.799849088582375,-0.28262214611859426,-0.635983557359875,0.11398384010230518,-0.06642172400533845,-0.4866727941176471,-1.0372727683434668,-1.185495912475077,-0.7545436675885018,-1.1803558013981887,-1.0735567005316968,-1.182882960955987,-0.7753421573545091,-1.1258034904161096,-0.4719858005787577,-0.6682405320196976,-0.5115035313936732,undefined,1489864573330
903d185fccf839df,-0.9176229569900087,-0.9138729759706029,-0.08653679477541401,-0.12629865835118242,-1.3934251446814325,-2.06909222180686,1.967927786190959,-0.799849088582375,-0.28262214611859426,-0.635983557359875,0.11398384010230518,-0.06642172400533845,-0.4866727941176471,-1.0372727683434668,-1.185495912475077,-0.7545436675885018,-1.1803558013981887,-1.0735567005316968,-1.182882960955987,-0.7753421573545091,-1.1258034904161096,-0.4719858005787577,-0.6682405320196976,-0.5115035313936732,undefined,1489864573351
903d185fccf839df,-0.8802005979381834,-0.9097638636767551,-0.07122453529875532,-0.10492241402904878,-1.3757748881873224,-2.0704455098033083,1.9815843697192168,-0.7046545790859183,-0.2837158035502934,-0.6197167271747843,0.11164497810557142,-0.07390496155323119,-0.4866727941176471,-1.0354211054510518,-1.1823380295349204,-0.7444406336622825,-1.1803116318075468,-1.069452952895867,-1.1809728316417076,-0.7775595334987742,-1.123149132134373,-0.471992467853099,-0.668403276439333,-0.5130948345786969,undefined,1489864573631
903d185fccf839df,-0.8483222575738114,-0.905067743691784,-0.0520844650898814,-0.07604713731446704,-1.3766903159979478,-2.0733780218521973,1.9817421558319916,-0.7044835898880848,-0.28211166320972114,-0.6243174781899173,0.10896598668980723,-0.06377405309326624,-0.45620961452762926,-1.0289402659014373,-1.183390659635717,-0.7525230509106053,-1.1920115378525895,-1.067622732167564,-1.178572925462071,-0.7700296936755401,-1.1202402236316622,-0.4727609123574838,-0.6686105290097998,-0.5139433755585453,undefined,1489864574190
903d185fccf839df,-0.8372341511880853,-0.898023534486335,-0.1343877327084471,-0.15811993016107462,-1.3725143236685036,-2.0705107285902016,1.969429402397418,-0.7846860117111337,-0.2850727397404612,-0.598103486256546,0.10714533979393755,-0.14327589030263074,-0.3604681929590018,-1.0298660908722574,-1.1686537866889253,-0.7080696818499356,-1.172134483979107,-1.0637913010821785,-1.1691132370833988,-0.7355063788907297,-1.1088569203942455,-0.4720600080309049,-0.6679153258368984,-0.5061960492141422,undefined,1489864575113
903d185fccf839df,-0.8386201644863011,-0.8827611299211828,-0.10440109749818247,-0.15497310000427197,-1.375836604166021,-2.071875662680355,1.9847506530894463,-0.6828123692332564,-0.2841896602732203,-0.589761721894372,0.10244443136043775,-0.11780106676855764,-0.47361714572192515,-1.02894025942605,-1.1676011602692453,-0.7302963805126312,-1.1667566656957,-1.065330206395785,-1.1694140998104032,-0.7334737842668297,-1.1092196854861591,-0.47121382846901216,-0.6671481056788897,-0.505468161976865,undefined,1489864575708
903d185fccf839df,-0.9120789383025555,-0.8915663622000017,-0.147147948938996,-0.19715797081515787,-1.436779360909414,-2.071523947538072,1.9716358101222218,-0.7787092985106935,-0.27762119545290415,-0.5909484010746234,0.10787962379987695,-0.1299010439907669,-0.47361714572192515,-1.0224594360649037,-1.1633906288227074,-0.6959460524443611,-1.151052536080356,-1.053785250044216,-1.1654399111773972,-0.6806571170457202,-1.0909863371194521,-0.47157359485630085,-0.6618961216679251,-0.49892615947089436,undefined,1489864576643
903d185fccf839df,-0.9120789383025555,-0.8833481522263023,-0.147147948938996,-0.20717444474497357,-1.4160331105049588,-2.0688919072735374,1.975138712525885,-0.7501148029594098,-0.26933330543975426,-0.5921709543812678,0.10820181173446647,-0.1019688011429626,-0.4823209113190731,-1.0169044376745775,-1.163390639866058,-0.7060490863705804,-1.151052536080356,-1.050789767795543,-1.1641035203060688,-0.6867395030373902,-1.0907610951643303,-0.4708999943904419,-0.6624138080118156,-0.49933016281960657,undefined,1489864578513
903d185fccf839df,-0.9120789383025555,-0.8833481522263023,-0.147147948938996,-0.20717444474497357,-1.4160331105049588,-2.0688919072735374,1.975138712525885,-0.7501148029594098,-0.26933330543975426,-0.5921709543812678,0.10820181173446647,-0.1019688011429626,-0.4823209113190731,-1.017830269120785,-1.1612853649399968,-0.7060490863705804,-1.1528412129115377,-1.049941153298479,-1.1629910274072626,-0.6868780890060199,-1.0902211420626018,-0.47098669713872937,-0.6625164067538952,-0.4995206615736338,undefined,1489864578549
903d185fccf839df,-0.8996048186186136,-0.8815871072319381,-0.14651006519594328,-0.17972140385813534,-1.4064879834612096,-2.0641798563951568,1.9788677769799004,-0.7189073002634145,-0.2587200160035365,-0.5869199846620742,0.11238083265970408,-0.10028596086039143,-0.4823209113190731,-1.0122752545419909,-1.1612853649399968,-0.7060490793044,-1.153041394163138,-1.0479399430299832,-1.1623753080256467,-0.6778238033528496,-1.0874227635803118,-0.4708460536240586,-0.6590441063813964,-0.4989375726668885,undefined,1489864578689
903d185fccf839df,-0.9300971111793602,-0.8768909945539651,-0.17330626514314654,-0.18705624237578897,-1.402785132607382,-2.0580842371722037,1.9828755995535408,-0.6883860151851479,-0.2647280801158929,-0.5950016632340049,0.10558625835042888,-0.09256957202190653,-0.6999150512477719,-1.0057944117546826,-1.1581274635942556,-0.6939254498988255,-1.155954489885138,-1.0460273940947773,-1.16023428384233,-0.6604235597562242,-1.0822782573922445,-0.4713492934675031,-0.6565559168326649,-0.49937146523295844,undefined,1489864580485
903d185fccf839df,-0.9300971111793602,-0.8768909945539651,-0.17330626514314654,-0.18705624237578897,-1.402785132607382,-2.0580842371722037,1.9828755995535408,-0.6883860151851479,-0.2647280801158929,-0.5950016632340049,0.10558625835042888,-0.09256957202190653,-0.6999150512477719,-1.0057944117546826,-1.1581274635942556,-0.6939254498988255,-1.155954489885138,-1.0460273940947773,-1.16023428384233,-0.6604235597562242,-1.0822782573922445,-0.4713492934675031,-0.6565559168326649,-0.49937146523295844,undefined,1489864580508
903d185fccf839df,-0.8885166777274779,-0.839908991216333,-0.09674496775985313,-0.13745796015782527,-1.3614057734056186,-2.0511850304766237,1.9881115450585514,-0.6422731836316175,-0.25876476713801727,-0.6116179444804387,0.10060870181056722,-0.13385982745041203,-0.7129706996434938,-0.996536074628752,-1.1518116572216566,-0.7121109152057283,-1.161509493261624,-1.0423859515079605,-1.153237472806609,-0.6452714893024553,-1.0759173154236694,-0.4715356870397209,-0.6572780599657703,-0.5017315798676227,undefined,1489864581276
903d185fccf839df,-0.9190090047936342,-0.8258206312614197,-0.18032451113842315,-0.23005623966494795,-1.3559132110230339,-2.0465242228528813,1.9690743763110214,-0.7659417708354492,-0.25423139511430937,-0.5903860140775016,0.11165849700147733,-0.14980652061772684,-0.7738970588235294,-1.0002394133643566,-1.1444432428349618,-0.6939254498988255,-1.1514061464342387,-1.0417589900617519,-1.1488784597588975,-0.6219890398953685,-1.0693906043426733,-0.47058354673110314,-0.6538615353027739,-0.49476179753152777,undefined,1489864581748
903d185fccf839df,-0.8857446511310464,-0.8129062720747569,-0.12673160297011776,-0.1423569804334857,-1.3427166627769533,-2.040978304094403,1.986509987940299,-0.6419698038977096,-0.24655685783136427,-0.5866488976938998,0.10546684774978977,-0.15992214777603547,-0.6433405748663101,-0.996536074628752,-1.1433906053719312,-0.6777605730050975,-1.1480726388976907,-1.039200480760719,-1.1475280754432107,-0.6175696861195957,-1.0669293815853442,-0.46957778031698055,-0.6543196139330194,-0.49491077673578915,undefined,1489864582642
903d185fccf839df,-0.8912887043239094,-0.7471605338291768,-0.11397138673956886,-0.13921182782940364,-1.3839005927187207,-2.0349176235562125,1.9811530777610917,-0.6777743576882128,-0.24393291229696126,-0.5902401789620668,0.0991570122847009,-0.09920994609830008,-0.5693585672905526,-0.9919069141600207,-1.1433906090530481,-0.6757399563272011,-1.147442674756234,-1.0365976409812876,-1.1486615586951254,-0.6117644719305619,-1.0643557534389203,-0.4693562405485718,-0.6561595677950179,-0.49439152510920253,undefined,1489864583156
903d185fccf839df,-0.8760425235381264,-0.7518566538141479,-0.08781307053541831,-0.11342066821877136,-1.3842605922771094,-2.0325720791976654,1.962060683664586,-0.8046916836829141,-0.23130628009864132,-0.601766076487128,0.10893888932104898,-0.08419583317373111,-0.5432472704991087,-0.9891293971575428,-1.1381274364623628,-0.6858429973196007,-1.1389275735149567,-1.0327155465845594,-1.150438748816845,-0.6167073721783928,-1.0644420601675186,-0.46833434283686354,-0.6551111206758832,-0.49270823253879503,undefined,1489864584135
903d185fccf839df,-0.8497082708720272,-0.7471605338291768,-0.0846231435462558,-0.11116079166307145,-1.3777806038110483,-2.0311256216293314,1.9652769359194295,-0.7822179908802162,-0.22748591114616917,-0.5902000957232745,0.10765229762483873,-0.012856469852803285,-0.6172292780748664,-0.9835744149556849,-1.1391800702442765,-0.6878636139974971,-1.1411976574654776,-1.0298910537874928,-1.1492632845528608,-0.6209111477313798,-1.06363667149549,-0.4688954522252625,-0.6559343794602094,-0.4929612632575919,undefined,1489864584688
903d185fccf839df,-0.8219879358968926,-0.7706411556750266,-0.130559413702333,-0.172189030225885,-1.36111777315235,-2.021699190671859,1.9580265567711792,-0.8233577521313203,-0.23022257541273644,-0.6088589329152188,0.09754213940061794,0.023264838442801805,-0.5998217468805704,-0.9937585802901294,-1.1370748100426828,-0.6757399563272011,-1.1436949755966082,-1.0369142883976972,-1.150683637240348,-0.6186783734243767,-1.0678440665151885,-0.46736632639340564,-0.6516036766488027,-0.4932586996283557,undefined,1489864585654
903d185fccf839df,-0.8025837842272818,-0.7741632456637548,-0.15799400566648786,-0.1843077706361184,-1.337707526476739,-2.0232178541580708,1.9490641781868996,-0.8835483456405402,-0.2263627511453866,-0.5949999655606998,0.09699101510580309,0.044370001720990176,-0.5998217468805704,-0.9937585802901294,-1.1402327113884239,-0.6494720949705165,-1.137606217235007,-1.0366419717974227,-1.1505227106268867,-0.6164917939286825,-1.0671016396220363,-0.4677079871913984,-0.6517110771980023,-0.49431232712254997,undefined,1489864586156
903d185fccf839df,-0.8122858773147921,-0.7641839906956913,-0.12673160297011776,-0.15424504517741924,-1.3299418250666575,-2.019949931643236,1.9514757095343451,-0.8634137850964746,-0.2272222049450368,-0.6032872968524373,0.08577602801359281,0.04454979848437103,-0.43445020053475936,-0.990055231841444,-1.1444432428349618,-0.6434102590691881,-1.1376096667064945,-1.0324558959103964,-1.1455059972527775,-0.6122418236586229,-1.0628310683099627,-0.46715584087270634,-0.6475663141408059,-0.4963271608736731,undefined,1489864587134
903d185fccf839df,-0.8926746831167154,-0.7377683157802288,-0.12545532721011346,-0.1398363890626664,-1.3293966825014565,-2.014571718344017,1.9505237154428963,-0.8676678534348878,-0.2223195282349928,-0.6211767042898934,0.09230563510461172,0.02719129039505603,-0.43445020053475936,-0.9937585835278231,-1.1465485030365554,-0.6656369153348015,-1.1489670606456615,-1.0363126587871014,-1.147954881200307,-0.6430541126870092,-1.0717202743552607,-0.4674999678632825,-0.6450046900892752,-0.4955888442734816,undefined,1489864587670
903d185fccf839df,-0.8455502309773798,-0.7230928677572133,-0.13247357320539005,-0.1528347392118651,-1.3227932653748566,-2.012696680661744,1.9490405052418787,-0.874242808716284,-0.21723809295024799,-0.6247719368323232,0.09419631343375073,0.004423968304779435,-0.4475058489304813,-0.9882035754244162,-1.1423379752711345,-0.6434102590691881,-1.146523494003454,-1.0284534757997281,-1.1429171773874507,-0.6352163037663769,-1.065700082050627,-0.4680314577609341,-0.6454103381544662,-0.4970095659824521,undefined,1489864588643
903d185fccf839df,-0.8108998640165763,-0.7113525824087817,-0.12545532721011346,-0.1398363890626664,-1.3328321051082517,-2.005105690224253,1.947759790431322,-0.8793687045701402,-0.21489085743071065,-0.6147387408726747,0.09821802924908639,-0.013190239345389996,-0.4779690285204991,-0.98264857703409,-1.1391800739253932,-0.6494720949705165,-1.1494140125495775,-1.0223295190588333,-1.144736348258206,-0.631597669019188,-1.062514096071887,-0.4693842001504656,-0.6463774146695397,-0.49728869305752393,undefined,1489864589173
903d185fccf839df,-0.8247599624933241,-0.7131136274031459,-0.05144658134682866,-0.07947405996026481,-1.2953818830174029,-2.0034472717742906,1.9540765835886085,-0.8314386139685662,-0.2176429772043318,-0.6108943952247199,0.09241447571275879,-0.07697351034967055,-0.4475058489304813,-0.983574405242604,-1.1423379789522514,-0.6454308757470845,-1.1501959412981628,-1.022608168558492,-1.1488364792056076,-0.6329219351390964,-1.0631254820156402,-0.47075294926791345,-0.6461927707178712,-0.4999487520653797,undefined,1489864590152
903d185fccf839df,-0.8178298960022453,-0.7113525824087817,-0.05910220281125916,-0.09640638134172269,-1.313433281433945,-2.000952656881381,1.9411116388950505,-0.919251133079445,-0.22612428273805785,-0.6118981258910358,0.09258424337311506,-0.09868151088639322,-0.4475058489304813,-0.9641318898314541,-1.14760114786182,-0.6413896423912917,-1.1713880085570263,-1.015211290299005,-1.145659927067596,-0.6344309825774355,-1.0587999619007966,-0.4715072926808814,-0.6498348084571977,-0.5017385246888513,undefined,1489864590672
903d185fccf839df,-0.8427782043809483,-0.7324851223411517,-0.013803816398234687,-0.017981194588589988,-1.3250252629505477,-2.0087346451068866,1.9587734157172456,-0.810129640946465,-0.23947184089136328,-0.6041493323030613,0.09513998841368534,-0.13307537107956158,-0.7434338792335116,-0.9845002334511178,-1.148653770600383,-0.6535132717968662,-1.1829184938712487,-1.016997180421566,-1.1447503415557552,-0.6193559038258679,-1.0557169169299707,-0.4718871776620954,-0.6533949330411949,-0.5060903052396464,undefined,1489864591678
903d185fccf839df,-0.844164217679164,-0.747160555750171,-0.004871410899901033,-0.011718910691183488,-1.3230298376170564,-2.0100856040761332,1.9540792149633548,-0.8425705675843571,-0.24191314903372663,-0.6124087068271356,0.09213948991179753,-0.06080267269767908,-0.9653799019607844,-0.9770935754060703,-1.1507590344830934,-0.6555338884747626,-1.1820351723083662,-1.0171998345085094,-1.142616314183315,-0.6249301411581974,-1.0560951386752508,-0.47214692853736856,-0.6534327127554395,-0.5070625600364116,undefined,1489864592255
