UUID,iqrAccX,iqrAccY,iqrAccZ,iqrAccXYZ,meanAccX,meanAccY,meanAccZ,meanAccXYZ, covarianceAccXY, covarianceAccXZ, covarianceAccYZ,pressureDerivative, pressureIQR, iqrGyroX, iqrGyroY, iqrGyroZ, iqrGyroMagnitude, meanGyroX, meanGyroY, meanGyroZ, meanGyroMagnitude, covarianceGyroXY, covarianceGyroXZ, covarianceGyroYZ, class, timestamp 
903d185fccf839df,-0.605769757859006,-0.46187101822524185,-0.19850775573271798,-0.2995566097818109,0.17347994015602142,-1.6953350743402538,1.7952287255721884,-1.1512701939800833,-0.5599150920099012,-0.8726071061805668,0.011765358246965714,-0.5126480242123662,-0.6476924576648841,-0.6289800256516609,-0.7939164769036967,-0.6939254357664647,-0.7623302910331563,-0.7720452525078405,-0.3877513683315715,-0.6025562006382454,-0.6130039107615688,-0.23440297488048936,-0.7165450347018248,-0.16987893949076407,undefined,1495451693847
903d185fccf839df,-0.24263392867238157,-0.48711260468847684,-0.266456097763103,-0.35033104613621324,-0.28761866920230916,-1.6152642502284256,1.8333902745409654,-0.8879668503758347,-0.3369376104617481,-0.6490101811892054,0.08636040262429696,-1.1676412264158518,2.5683489304812834,-0.4993632670363074,-0.46970555183915746,0.6053254210442439,-0.4663756645820294,-0.6130438021067727,-0.4297361268717276,0.310277904755727,-0.41011963436929966,-0.1749933365134619,-0.6022946499852546,-0.3959900625936831,undefined,1495451695347
903d185fccf839df,-0.0964093186781613,-0.427824031422232,0.029581427059530426,0.0319971658275375,-0.2304136693873255,-1.5223912437770775,1.759126427712383,-0.9594142122536518,-0.35811053204946697,0.15622130452457522,-0.01225799756187668,-0.5860690311051,3.4082623106060606,-0.43918414532817096,-0.5349688095066386,1.2539406047062736,-0.2885709037992017,-0.3729253052183381,-0.46336571454431125,0.9228235631965467,-0.20639458640448902,-0.21421812656033198,-0.7560088493415983,-0.46777031693579446,undefined,1495451696868
903d185fccf839df,0.3602826151704848,-0.4149097599195462,0.3371028923527084,0.3672068137100626,-0.05595539234658324,-1.459649107562881,1.7912258443429852,-0.4905512103980461,-0.49126868685253733,0.409936638142496,0.019759039209265764,-0.48082334030737994,0.6535204991087344,-0.33919405126994373,-0.521284551936176,0.902354715988379,-0.3050171785680723,-0.31162021876258256,-0.5611194996139243,0.9130185083442207,-0.21147846299615994,-0.16870381318131275,-0.8220002985797067,-0.48322671739384654,undefined,1495451698387
903d185fccf839df,0.47809367650800433,-0.2411530866516768,1.7368996293917207,1.77692113485253,0.1200534526069695,-1.3758151296301022,1.820237871245907,0.038202602045805896,-0.4513048396562623,0.6967996173322836,-0.013383593984620652,-0.02633511305085762,-0.6215811608734403,-0.13273308835774741,-0.6433900117402962,0.530562886609293,-0.31900539166808667,-0.21293830657997492,-0.6220512516416399,0.7920333387146289,-0.21270824321402265,-0.29702541109597014,-0.8076493558624321,-0.4304236068557717,undefined,1495451699897
903d185fccf839df,0.5044279981849231,-0.11729280513609472,2.4878392440388466,2.4677782064954865,0.17180079705819531,-1.3914746025944664,1.812548322526036,-0.07475273258579918,-0.6080714627879139,0.8975415019683441,0.1975680980512781,0.07512777383262333,-0.9827874331550802,-0.2003189587663531,-0.6791794940652582,0.42347065491632907,-0.3710779796629215,-0.2510149787966831,-0.6658116399121207,0.6849232185152732,-0.2718834050282152,-0.29311882717506094,-0.7524950542474637,-0.4623882548879997,undefined,1495451701365
903d185fccf839df,0.12466014744134854,-0.06270035185482101,2.461680673697747,2.400801178703784,-0.0127966027159041,-1.4405959305596567,1.7702847120415959,-0.5422108245434528,-0.5856070899682703,0.8067849076192647,0.22317129113793824,0.019564481951272087,-1.0001949643493762,-0.22346479024925214,-0.723390120267868,0.21938933144932624,-0.4305550752462222,-0.20268828580489837,-0.7280552700032252,0.7615304850413424,-0.2641188537281611,-0.28303510354258204,-0.8172323700666839,-0.42281338976978056,undefined,1495451702913
903d185fccf839df,0.13297622723064306,-0.17188525841736843,2.0412314218326855,2.0481254370094226,0.03454845801745447,-1.5257296253894426,1.780593550523023,-0.6062760579545574,-0.8033821012449998,-0.1254426456567436,0.09018458488606097,-0.08940769204242602,-0.8087121212121212,-0.20124478373717336,-0.82233758533425,0.049658321918232766,-0.6176958127008916,-0.20876791038978484,-0.8257377466892177,0.4870070009442527,-0.34990324142827606,-0.26581800115693355,-0.69782118169209,-0.5589249585044171,undefined,1495451704350
903d185fccf839df,0.21613709413440765,-0.2957455983889352,1.5582568563009855,1.4069619815678631,-0.13805582443120273,-1.4623719900356125,1.7543165307450321,-0.7610468884520551,-0.882572100943761,-0.21503153317793022,0.0382676204178952,-0.07952266344330608,-0.6302849264705882,-0.400299108030484,-0.8654955372626602,0.19716268931607367,-0.7241175948865641,-0.3893517982045267,-0.8627438797340506,0.3734126696543485,-0.47470448287048406,-0.458522290117492,-0.6604699476671823,-0.546785740272674,undefined,1495451705846
903d185fccf839df,-0.11373441589503874,-0.26111165504378864,1.6233337049398355,1.5283455618075705,-0.46097528727704923,-1.4889509403891894,1.8589302188523293,-0.2614976449882209,-0.800330816370229,-0.7431826511096293,-0.049733154003001566,-0.02627629267636418,-0.8174158868092692,-0.4206674127978241,-0.8423376161472599,0.06986431910886742,-0.7983038111905923,-0.4189456445681826,-0.8703074319736515,0.2071864511828462,-0.5282548412454929,-0.4574988630536517,-0.6152477196775429,-0.5603582485235868,undefined,1495451707343
903d185fccf839df,-0.3257947265653267,-0.24467517664040514,1.4970078183943507,1.5436087943053436,-0.6688697941781485,-1.5117565208531931,1.8743987427284086,-0.3674117592114019,-0.6370565819309796,-0.4320515693910005,-0.021054533538953486,0.06238885473438473,-0.9697317847593583,-0.5326933480336856,-0.8528639245174618,-0.008939420417154767,-0.878986192064991,-0.46271261913099176,-0.8975110321605734,0.15567865152850016,-0.5642233518562506,-0.452526164420333,-0.6526967087933736,-0.5524773194576528,undefined,1495451708859
903d185fccf839df,-0.2869863542152857,-0.1554487800139849,2.135656767801798,2.2456314589490423,-0.4215913527265992,-1.5570718697011707,1.8227519769872111,-0.615425706076442,-0.8389406755733976,-0.2697623712689099,-0.04399216069732993,0.009992349377898899,-0.9044535427807487,-0.44751655711477867,-0.9086534891910704,0.17493593412393496,-0.8441009671768195,-0.40443687199851747,-0.9214261317921095,0.24574415814955378,-0.5259213506789575,-0.4643755564342052,-0.6095063977814944,-0.5366107024232832,undefined,1495451710352
903d185fccf839df,-0.29807446060101167,-0.2810702234359005,1.7898549079539228,1.841404535395078,-0.2753287373106571,-1.5753773602508727,1.770581881928031,-0.9411009198556828,-0.7671979226959226,-0.6440167139439403,-0.02178897458557349,0.07578273317624866,-0.7347301136363636,-0.41326073532661484,-0.8570744743695843,0.3466875320682033,-0.8686976866031108,-0.40210634951698043,-0.9045288338674896,0.25353576653739557,-0.5169225249231226,-0.5062520966354745,-0.5964778117413164,-0.5392867712656053,undefined,1495451711913
903d185fccf839df,-0.16085900605601325,-0.25406747506633204,1.7694385619850446,1.6086482204194303,-0.2533173451962168,-1.633063298246485,1.8747274603049513,-0.3334485383899395,-0.7365234048842468,-0.4727395486817472,-0.16096495561117116,0.012390388088700282,-0.8217677696078431,-0.3651173706160781,-0.8433902315235892,0.33254327185237165,-0.8776001364278394,-0.3719995339237126,-0.8931100380335046,0.2891523707604202,-0.4822012758646382,-0.49384539752943846,-0.6554649349997211,-0.5854260435286289,undefined,1495451713348
903d185fccf839df,0.033183062726650475,-0.3127690041064631,1.369405147814963,1.3585294643179315,-0.5266288855980638,-1.6899829181472121,1.9219482521515276,-0.244901932224329,-0.590922809153095,-0.5315643710568687,-0.26995809210044464,0.06861834736988323,-0.7434338792335116,-0.3984474192365199,-0.8886534436535929,0.27798687593166305,-0.8621260400871957,-0.41046583345477133,-0.8933059492090653,0.29383349890305616,-0.49802896787834794,-0.5133211253736025,-0.657560854951984,-0.568119925874722,undefined,1495451714855
903d185fccf839df,-0.11512046369866423,-0.36677444238961543,1.6271617698090002,1.6626518568703337,-0.5835396469578179,-1.7645278890227145,1.8636139009161268,-0.7359851005428756,-0.6274008099372779,0.03041876646652997,-0.32487772239187795,-0.0645901908141844,-0.7956564728163993,-0.4271482782489877,-0.8981271440096994,0.2012038944071449,-0.8549694727823967,-0.4217448061220598,-0.8889819198425963,0.28821306740560865,-0.5071435347984381,-0.505661749140102,-0.6839134570634022,-0.5543500437754616,undefined,1495451716364
903d185fccf839df,-0.5156787554533432,-0.35386008320295254,1.2494593693847527,1.2945712263992404,-0.6144996008451196,-1.7896161248271778,1.8860014298486447,-0.657754514795013,-0.7044472429430257,-0.255920562008598,-0.15500467858811082,-0.06467479382511677,-0.3125974821746881,-0.5039924890212177,-0.8707586877666442,0.01530786665871573,-0.8927401828420874,-0.4877910768187671,-0.8828457165691752,0.25655386335264657,-0.5444041075217955,-0.4966057316344755,-0.7260258182622862,-0.5906053122436059,undefined,1495451717836
903d185fccf839df,0.030411036130218973,-0.35914321818604505,1.502749788629623,1.4982962159893376,-0.47587926043530826,-1.8241983392441958,1.9438755722867995,-0.2771197585169831,-0.6647188510950598,-0.5134614758932682,-0.15539441202559498,-0.18698477110843775,-0.39528325534759357,-0.4817724566075899,-0.8897060884788572,0.12240015488112273,-0.7951421704241444,-0.447798536615707,-0.869915610405514,0.3044430356506116,-0.5144475537195377,-0.5029871037775204,-0.5687201428591393,-0.5917525053981304,undefined,1495451719354
903d185fccf839df,-0.04720584659150209,-0.40434346072536886,1.2934819883116715,1.2883250980114636,-0.5560974098158498,-1.7984649058620972,1.9686378305073389,-0.16906529461420175,-0.5168872870649655,-0.4488528089479057,-0.16545241189811918,-0.11153703205840143,-0.5693585672905526,-0.4410357564174878,-0.9549693314218709,0.02339033337030128,-0.8079745893649517,-0.43189651616571895,-0.8959157589381356,0.22839011697044218,-0.5338207263769587,-0.5207704001720769,-0.4901200263008897,-0.5795613099620315,undefined,1495451720842
903d185fccf839df,0.20227678862520146,-0.33566261826118954,1.4867996454099115,1.4698389813978192,-0.49936150446353006,-1.7626831330453794,1.8860145820085288,-0.6004762790070217,-0.5998833455465482,-0.20488958915960342,-0.24525157646974086,0.0964211999639031,-0.6433405748663101,-0.41696404816067034,-0.9444430009649676,0.06986426257942435,-0.7901934426288837,-0.4000798067318618,-0.9027166586270179,0.2789278159752147,-0.5133367950061039,-0.5093837770410563,-0.4831220391334146,-0.6017998415158361,undefined,1495451722396
903d185fccf839df,-0.335496819652837,-0.30983392911585617,1.393011674909953,1.3169937332834103,-0.7348011091579411,-1.669182811501363,1.8513142959751105,-0.7842572833175608,-0.6672625529490217,0.22064429596924182,-0.24587033342353481,0.23351632797261337,0.7884288658645277,-0.36974653432250293,-0.92654820826685,0.12240018314584426,-0.8299493064577422,-0.38635631712409013,-0.8864490735100211,0.27942056773727464,-0.5018166147171886,-0.5153588796428135,-0.47117842499939827,-0.6212293130561831,undefined,1495451723842
903d185fccf839df,-0.336882798445643,-0.3057247949010141,1.062521820401787,0.9770279761822644,-0.8442512082854883,-1.5632513409107902,1.7839597057653813,-1.058948506897804,-0.7928358599811557,-0.2656277454774137,-0.11329610478353982,0.10991205739070019,0.6187054367201427,-0.42807410321980793,-0.943390363501937,0.11027651134318747,-0.7803291662017806,-0.39154933187524815,-0.8928231681330352,0.19281971272825327,-0.526557563701107,-0.48855230627341234,-0.4304402532714003,-0.591678323345583,undefined,1495451725380
903d185fccf839df,-0.5891374602587781,-0.32509634829500456,1.0287073744593072,0.9480761591961309,-0.8840157132882733,-1.5997458617282174,1.8587645375677933,-0.6681776846026819,-0.7077754195993069,-0.18634062671892873,-0.18213685616211608,-0.010555209256651363,0.4837970699643494,-0.4567749363307267,-0.9623377274029811,-0.06551640475103823,-0.8223729460646408,-0.41626681258730214,-0.9162554877834954,0.09103598213563699,-0.5625796119322978,-0.4747947184938561,-0.549043345896721,-0.5851726383704359,undefined,1495451726859
903d185fccf839df,-0.564189289901714,-0.33448858826494676,1.0440193797990165,0.98888377835401,-1.0433000220651538,-1.6107352123988448,1.8568631891398164,-0.7297636786145673,-0.665891859889313,-0.2700983900127249,-0.13642376094493236,-0.26438487543857836,0.744910037878788,-0.45770080015387055,-0.9644429949668084,-0.11199037635724361,-0.7623569296743135,-0.49900038734368085,-0.950113055780897,-0.14730115719548834,-0.655688272130028,-0.44245963478056655,-0.5483543631922843,-0.5519309542499785,undefined,1495451728340
903d185fccf839df,-0.6071557366518121,-0.35914321818604505,0.9534215904251698,1.0550257353094301,-1.0845456654889698,-1.6999427463021874,1.8726578002652141,-0.8160852771039113,-0.6048076023873649,-0.06009437719724525,-0.1657458435451838,-0.11027324784847323,-0.6563962232620321,-0.5271382816517931,-0.9981272759880473,-0.23726808748947117,-0.7928988980603475,-0.5305574450514084,-0.9642815985708009,-0.2166557568317938,-0.6902201751109764,-0.44190179088449066,-0.5503789216022181,-0.5253208739711351,undefined,1495451729843
903d185fccf839df,-0.6404200903143998,-0.2963326133870566,0.9011047038799193,1.0376414845529598,-1.1905912034339656,-1.6307992794137969,1.8721712892432436,-0.7639448742746668,-0.5147945471063812,-0.1934371934806877,-0.07338363097321508,0.1643541815855085,-0.09935522504456328,-0.5058441260120837,-1.0065483462433569,-0.35042208442195966,-0.8362205194534097,-0.5494612820945235,-0.9881057396364722,-0.28864348871430406,-0.7172191271765883,-0.4387863411228364,-0.5299136536263976,-0.5372117074117142,undefined,1495451731346
903d185fccf839df,-0.5752773617820303,-0.3720575481447156,1.4440527939690981,1.3957416664592983,-0.9462030404856103,-1.6994209955866333,1.9537110529536623,-0.2358092251631753,-0.5387907006411072,-0.03634339944828701,-0.1064860156394739,0.1871408447095833,0.6187054367201427,-0.2975315131582469,-1.0076009837063875,-0.19281467603171912,-0.6384751665570743,-0.44150992385964677,-1.0052269366530362,-0.22577163796300043,-0.6498387251454969,-0.43458975977913594,-0.5104999475991171,-0.49409051710140256,undefined,1495451732844
903d185fccf839df,-0.4394479205352476,-0.42019280721866165,1.7636963376128227,1.6557059333404927,-0.935773344436798,-1.7446990760526209,1.9188871588247998,-0.5239930983503884,-0.4800919805293403,0.14111712487461886,-0.07731261263203495,0.27174944871765505,-0.5084322081105169,-0.3512298924475779,-0.9844430478665197,-0.28980385259992264,-0.6755117423845396,-0.48318702443436684,-0.9894981046767265,-0.28363899503470796,-0.6750889695613855,-0.4812031901372317,-0.5140352938882037,-0.4635767247906249,undefined,1495451734385
903d185fccf839df,-0.34104094185651945,-0.6062768246750725,1.9365976487421845,1.9212925130316179,-0.8497026323050718,-1.8755766970074725,1.8915108712475488,-0.883691801895943,-0.3082010927496657,-0.24315619441501232,0.16757813960858545,0.10935251423315329,-0.7129706996434938,-0.33456486166196975,-0.9812851575641293,-0.15442314287237774,-0.6989124612334202,-0.4687162491724194,-0.9784711305699227,-0.13465903590730297,-0.638203687904472,-0.5142562972732492,-0.5510437003263127,-0.48734377812141005,undefined,1495451735837
903d185fccf839df,-0.42974575843691787,-0.6884589536400592,1.3024141396730557,1.3338257482647142,-0.9125379591120137,-1.9027100052411607,1.9568931078120213,-0.5459454174726063,-0.25895369418805375,-0.2809441225093626,0.3175691729439255,0.06120125057636231,-0.8348234180035651,-0.33919405126994373,-0.9707588050205245,-0.06147521379232777,-0.7378461302687958,-0.4018150334932505,-0.9694872252329915,-0.05012157097260692,-0.5910976873502598,-0.5395333952018455,-0.42910757912246206,-0.5163853851465385,undefined,1495451737352
903d185fccf839df,-0.5364690066846941,-0.4565878832421494,1.6705465049928663,1.7096200077944126,-1.025958338932836,-1.8460698950396102,1.8749062806553487,-1.0150629173691228,-0.3431087436207659,-0.30719063168651684,0.28404984129193594,-0.00932597530392071,-0.9784355503565063,-0.36233988275284273,-0.9623377494896824,-0.14229952759916403,-0.8068373621226623,-0.39085270899535823,-0.9330408376271795,-0.015536663186825065,-0.5721651594734903,-0.5806789577020192,-0.4173565411989099,-0.5307448533636614,undefined,1495451738851
903d185fccf839df,-0.48934441652371957,-0.535834937216529,1.1709836583614528,1.2676327494187904,-1.0913342258924523,-1.8594956310057902,1.953250838918807,-0.5581299911166892,-0.3990746679038393,-0.40807539906864704,0.13563092603756957,0.05399643319506783,-1.0088987299465242,-0.45862659922314175,-0.9044429246144803,-0.18271163503931948,-0.8204867894876962,-0.4859481892120462,-0.9150520365757405,-0.01399681786138248,-0.6165420623235174,-0.5794688211540114,-0.39949441909628386,-0.5336444369519877,undefined,1495451740333
903d185fccf839df,-0.5045905800567977,-0.47302428857555207,1.4765909641515735,1.41533248453238,-1.1972871834177197,-1.8778942917113286,1.914613725577571,-0.8535654526377437,-0.41888681748105444,-0.9625192338425047,-0.010095642203316652,-0.01738323218934998,-1.030658143939394,-0.4539974225659423,-0.966548291979571,-0.09986671868694759,-0.8091768169748722,-0.4959859067899589,-0.944963403715827,0.1074507218311979,-0.6177868482613311,-0.5515161328287141,-0.3400274374732578,-0.5849817047730416,undefined,1495451741829
903d185fccf839df,-0.4851863766290723,-0.5951234812547815,1.4523468074504802,1.5157296945519194,-1.1469386963884092,-1.9048715404739074,1.9970844344765113,-0.32461654122282985,-0.4145570617111705,-1.0794364297461314,0.06073834665464115,0.02634238707971568,-1.030658143939394,-0.42992575316144843,-0.9623377568519162,-0.055413293096834765,-0.7686360618551976,-0.4453223582954463,-0.9696621466855013,0.09697977892772315,-0.6049896480105913,-0.5213152543580097,-0.2942826194518016,-0.5820518638533575,undefined,1495451743340
903d185fccf839df,-0.6099277459955387,-0.38614599578360587,1.2169204367914288,1.1210135402194799,-1.249322525713587,-1.7886029070743907,1.9167833045311433,-0.7057881012347864,-0.45611320324454274,-0.8938257455145031,-0.04939797959283788,0.01648280183816906,-0.8696384803921569,-0.42807407731825886,-0.9739167321340839,-0.06349575980842032,-0.7850860839376353,-0.5282269241921145,-0.9801433691157301,0.09628684730755001,-0.6426392678532213,-0.5012439389115103,-0.3797794105686508,-0.5509068055801887,undefined,1495451744876
903d185fccf839df,-0.6113137765464594,-0.43956438984064444,0.9438515553207328,0.7677670131119818,-1.2043431751750437,-1.7150944462043218,1.8972280744527326,-0.7375889499621262,-0.37095075016365664,-0.582841277812053,-0.03640340383069816,-0.036572722685541216,-0.843527183600713,-0.4780691049212107,-0.9802324980143973,0.20322445455559823,-0.8080228619404539,-0.5632924314126108,-0.9942209527647653,0.10449422027858618,-0.6571990131673339,-0.49378500943324743,-0.45789370504337634,-0.5345249734715796,undefined,1495451746350
903d185fccf839df,-0.6265599228268326,-0.5053100696302398,0.8213534795074634,0.7330589673930827,-1.1657306705291632,-1.6832420998199247,1.9126676699669511,-0.5905658485250996,-0.43432694862949484,-0.5147972987124694,-0.0510294765253143,-0.0004136223791381937,-0.8957497771836007,-0.4067798828262258,-1.0233904573050412,0.18099779828998488,-0.754944836997131,-0.5542743202416479,-1.015302343581404,0.10380129100085507,-0.6570253278588075,-0.47499486818274056,-0.48672155542477846,-0.530869860407826,undefined,1495451747836
903d185fccf839df,-0.6778424148608154,-0.3520990382085884,1.185020150352006,1.043979267943883,-1.190560342133754,-1.7458893164000315,1.8749825475745987,-0.9556913909922607,-0.3321108111311603,-0.48075911777686303,-0.09709906419282659,-0.020945145835708872,-0.7564895276292335,-0.4734399412147858,-1.0044430860417632,0.3042547796854299,-0.7446198005541966,-0.6044249007633715,-1.0053178947234194,0.3681772045568212,-0.6181095537164494,-0.4661021706610336,-0.5795552350456251,-0.4993030833777701,undefined,1495451749339
903d185fccf839df,-0.6293319494232641,-0.3573822608756579,1.1046307880995478,1.0081957611435528,-1.20865288145796,-1.7913840178071454,1.8981563992654868,-0.8654388072583757,-0.44609329349881394,-0.4543385828821657,-0.16358669687469615,-0.006935177843178339,-0.9262129567736186,-0.4577007224492233,-1.003390441216499,0.47398584574596647,-0.695156016717124,-0.5563958544634244,-0.9854609456205701,0.5094271476377026,-0.5616892685705235,-0.44582261789741295,-0.5922448814089226,-0.5228628465747086,undefined,1495451750839
903d185fccf839df,-0.4616242023175191,-0.38673295232574256,1.2035223368178272,1.1388143642017345,-1.0597057058707373,-1.8260896829641506,1.9435705197988649,-0.5687446452940544,-0.4756230094339885,-0.2403111443246965,-0.08408340129653541,-0.01468452214764126,-0.9305648395721926,-0.5049182492381653,-1.0044430565928282,0.31839906816598307,-0.7665694818383405,-0.5634064214145409,-0.9769248367853351,0.5243328400833968,-0.5585200869586173,-0.44260642667235345,-0.6857070650287245,-0.5276713588785318,undefined,1495451752336
903d185fccf839df,-0.2897582945481928,-0.43134617986694507,1.3400569046216497,1.3717361113927584,-1.0626268443878077,-1.8591928293928304,1.9178141974403502,-0.7629758575480505,-0.5041281079834294,-0.13350201273975132,-0.09256202039553539,0.05146013314722679,-0.9871393159536542,-0.5697266188327611,-0.9865483375170485,0.2274717981609118,-0.7796370394033849,-0.5446545763152632,-0.9485037912978914,0.6358175824624364,-0.5298842058942893,-0.45534037311143094,-0.6707437073307394,-0.5498466921908438,undefined,1495451753823
903d185fccf839df,-0.43251778503334937,-0.44132542022101245,1.3477127802230298,1.41139807113498,-1.1750083698100058,-1.8590600626659013,1.925561602110577,-0.7457091157972077,-0.47816437863009725,-0.3468821200304384,0.01186903091514069,-0.07603504219718488,-1.017602495543672,-0.5576907776551269,-0.9623377200407472,0.2598014388894817,-0.7872284635546102,-0.5358834504958484,-0.9475172407073634,0.6415766001977596,-0.5244550475049672,-0.48510262178879593,-0.6432332442908466,-0.5511777912880118,undefined,1495451755337
903d185fccf839df,-0.4921165035046181,-0.4066915353318506,1.394287696533008,1.3735541491561705,-1.3144721343641868,-1.8511126973618692,1.8994213211137172,-0.9124770847866103,-0.46452312448668154,-0.3183814220051243,-0.0918178747995802,-0.050645612684684795,-0.47361714572192515,-0.5826883626858629,-1.0044430713172958,0.12442065850013297,-0.7818922283867116,-0.5459085011565865,-0.9660377989327673,0.5668325448168015,-0.5497752743002846,-0.48282198790434006,-0.6353305031698263,-0.5479316516221415,undefined,1495451756846
903d185fccf839df,-0.7443711394386958,-0.33977178170402395,1.0465714230451262,1.1558409110077497,-1.3367098117614602,-1.7826237483549445,1.9151396726525167,-0.7254153773543309,-0.44260663883141255,-0.3089704334723996,-0.11710767445565912,-0.046726897352543866,-0.5432472704991087,-0.5752816593131045,-0.969706167557494,0.011266689832366028,-0.8234124629201234,-0.5269983309981574,-0.9319563329444925,0.35162386626498426,-0.5796796086847665,-0.48655654081103744,-0.6002654807092983,-0.5499098970158227,undefined,1495451758388
903d185fccf839df,-0.5392410332811256,-0.32920551173783896,1.262219331478352,1.1896089235263518,-1.1524415523760925,-1.7922248715932436,1.9194367767497231,-0.6671141686420625,-0.49684762637348945,-0.22233326253036884,-0.16333959985194263,-0.001432021989136768,-0.8087121212121212,-0.6067600191395821,-0.9497061588311855,0.15675046881703208,-0.8564234922275221,-0.5587643779622453,-0.9289826882607342,0.33303794628652694,-0.5956744063459287,-0.4557058198861044,-0.6504782359630915,-0.5290761481959327,undefined,1495451759835
903d185fccf839df,-0.4838003805835614,-0.30278977836639187,0.8213534795074634,0.8334083864525528,-1.056619998069538,-1.7408232208959689,1.8653443037387922,-0.9429471562229609,-0.5478154732407473,-0.012137939672435974,-0.15673644751385804,0.07513166518557944,-0.5867660984848485,-0.6234250240236412,-0.9286534979173788,0.19312139943083784,-0.8227639798380653,-0.5624754826360704,-0.9394499164880888,0.38254395129073454,-0.5931470680919291,-0.45512791822163795,-0.6136546883658673,-0.5217946622853269,undefined,1495451761337
903d185fccf839df,-0.42835977964411187,-0.37792775658191413,1.139082863648131,1.0875015417001244,-0.9383241958879698,-1.7948522522957038,1.8867325136402557,-0.8714632474849494,-0.5487223071427141,0.14740871748718398,-0.08512395244766231,0.012947575757548044,-0.7173225824420678,-0.5891691892847027,-0.89917978147273,0.0011636912370487033,-0.8420735609884894,-0.5958247634211099,-0.9467895711221914,0.2948960003489641,-0.6258378085082031,-0.4450674776615861,-0.5947062246659222,-0.49151953518637137,undefined,1495451762839
903d185fccf839df,-0.3687612078208345,-0.48946072313694705,0.9521455688021149,0.9556345791606323,-0.9236053600270361,-1.826408787723577,1.9208226941740434,-0.6909715538728415,-0.4386829373172579,0.3544771652651032,0.02103294313217556,0.06714289287336292,-0.7738970588235294,-0.5715783335282744,-0.8939166088820446,0.0031842796502235537,-0.8467678302944155,-0.5902707694740275,-0.9432701756549489,0.3312825280020616,-0.6141537621149648,-0.43627433683426126,-0.5919790041255582,-0.49511380934213484,undefined,1495451764331
903d185fccf839df,0.00407671445330021,-0.5452272064144635,1.3547312803552558,1.4668159796436762,-0.7381645324176057,-1.8592044765117348,1.9376140055260107,-0.5736828196229454,-0.3376892084170918,0.12200682808988676,0.09129448442925875,0.024498628863345532,-0.8087121212121212,-0.5382483302355434,-0.9486535066436873,0.09815278301108761,-0.8823313342913044,-0.5964770546377548,-0.9837257361928329,0.4350064590995489,-0.609190194206049,-0.467500984954024,-0.59799023388251,-0.45674950988985186,undefined,1495451765839
903d185fccf839df,-0.138682689768332,-0.454239750179683,1.2239389369236549,1.3334548912088546,-0.72039084451024,-1.8738018185455367,1.8784486363960975,-0.9695221399353519,-0.32930978741095984,0.05330555506247157,-0.0008538425574250455,0.10270099438643569,-0.8087121212121212,-0.5669491698218494,-0.9654956434731897,-0.008939363887711695,-0.846646941166594,-0.5966797079993948,-1.0016655596415398,0.34729691375672683,-0.6311459837614453,-0.4799011078185984,-0.5380058004535848,-0.454567838947654,undefined,1495451767405
903d185fccf839df,-0.2523358837382529,-0.5076581588507177,0.5616829521473184,0.4918293497523374,-0.7667381968219587,-1.8009082767130078,1.8679846342727062,-0.9612197117476802,-0.47286313087791737,-0.197334167060654,-0.0254305617994989,-0.03746308278213897,-0.7347301136363636,-0.6178700418217833,-0.9949693599178385,-0.2716184014253805,-0.8180255784457502,-0.6699961959448885,-1.0357680160379763,0.141820057829178,-0.716372362441196,-0.48953107916253413,-0.5266996245695075,-0.4456094805478848,undefined,1495451768830
903d185fccf839df,-0.6154717819356968,-0.5475752664069491,0.3492247165663057,0.40638038701818857,-0.9614875815855506,-1.7653594267924242,1.8621675069160775,-1.0306735652013068,-0.4692465271314531,-0.27522828252776166,-0.13819429811967002,-0.05410123369822326,-0.6041736296791445,-0.6243508813713978,-1.0191799221773863,0.033493416759783214,-0.7612242013198275,-0.6667853928305142,-1.023502606577278,0.3262318423113171,-0.6686285305501077,-0.4892995480046929,-0.5012715850621292,-0.4279756862717696,undefined,1495451770403
903d185fccf839df,-0.5988396223571077,-0.5446401329603575,0.2567132759633009,0.34920981789328165,-1.0029492306627412,-1.746925827467359,1.864197717808817,-1.010219624561227,-0.500551781395386,0.02219720718129634,-0.16589047664534035,0.0657027557458084,-0.5084322081105169,-0.6132408586891966,-1.0454957409574108,0.025410950048197663,-0.7263651424677959,-0.5895424800431142,-1.0127065273211606,0.3024104463308618,-0.6352584806933421,-0.48123569505587654,-0.5114766247473338,-0.4445466415843648,undefined,1495451771854
903d185fccf839df,-0.5032045322531722,-0.4389773748425231,0.26181736245552045,0.3699992337672284,-0.958731013254844,-1.7995573166148195,1.8984561984316255,-0.8233824045522782,-0.5147269389974086,0.05335142997821105,-0.1511418882425149,0.025621173822669045,-0.3343568961675579,-0.6697167387925375,-1.0412852279164573,-0.21706200550467192,-0.7824916681941723,-0.6165714838962997,-1.0191855742357832,0.1778678195612963,-0.6719275014095888,-0.4956998106377379,-0.5041043050645339,-0.4632310531519841,undefined,1495451773342
903d185fccf839df,-0.3881654285012648,-0.3849719365593708,0.6739731091130983,0.6385687703418016,-1.07113310911487,-1.8089511392443631,1.9143191896846865,-0.7495763999335625,-0.5989394150311124,0.04237246406706174,-0.06011846674122167,0.1391089486798104,-0.865286597593583,-0.7058242688008273,-1.0360220626880057,-0.16048500703842766,-0.8749157367701014,-0.6662914259089605,-1.0180590873114972,0.015629797558407623,-0.72651033008115,-0.49051448460255603,-0.5212160335782433,-0.4644637521573173,undefined,1495451774849
903d185fccf839df,-0.6265599055741277,-0.42371492643538233,0.6637646819917097,0.7439631007896411,-1.2149888689911768,-1.8158293821414198,1.8907166810767457,-0.9438815386512543,-0.5762146261785162,-0.15157044433756484,-0.028660428624573655,0.07288790295528394,-0.9392686051693405,-0.6502741942421449,-1.0433904807558172,-0.06955760984210947,-0.8581540617075402,-0.6503450738510942,-1.0024422052818271,0.057990921667719554,-0.7038684429694568,-0.4973636181562028,-0.5008915210221797,-0.4786135421472019,undefined,1495451776347
903d185fccf839df,-0.6265598883214228,-0.24878428162725486,0.9904264716307111,1.0189359329433558,-1.2623030790170826,-1.6951514980875029,1.8704855846992856,-0.8672616380500965,-0.6230986242712733,0.025541346180355043,-0.05623522711731989,-0.032074363149472866,-0.8826941287878788,-0.6391642298384291,-1.013916779035636,-0.10188734949720475,-0.8447642900539843,-0.6263875472385104,-0.9801223782120863,-0.01017799719804107,-0.6991665760030574,-0.5141812604981342,-0.49746505658489876,-0.48400579363138185,undefined,1495451777859
903d185fccf839df,-0.43528989789330524,-0.27578705922481567,1.4427765182090937,1.553258228783906,-1.0763582548494435,-1.7375762610520746,1.8518192213826954,-0.968796715461538,-0.6205431824675304,-0.05934740043924684,-0.24788463569756394,0.0562165476401359,-0.9131573083778967,-0.6410158603539078,-1.0286536004467914,-0.24939170276268488,-0.9287726622893877,-0.6434358323045962,-0.9816266928441908,-0.24341825384621904,-0.7519629616985893,-0.5192040976513974,-0.5004628605536103,-0.5411524580605624,undefined,1495451779342
903d185fccf839df,-0.2994604738992274,-0.3039637791346423,1.676288729365088,1.6624417691940092,-1.0184909211584587,-1.7608430317474004,1.840453201385122,-1.0727774533118768,-0.5638128925196917,-0.05775809485541837,-0.20140826708106688,-0.022743582258308623,-0.847879066399287,-0.6224991990528209,-1.0233904425805735,-0.1988765119330475,-0.9148588483479091,-0.6529985765487649,-0.9891832484931292,-0.18705994531675973,-0.7494023230517783,-0.5130089392395036,-0.5130452983244675,-0.53471043091056,undefined,1495451780833
903d185fccf839df,-0.15115684395768353,-0.4207798952867639,1.738175905151725,1.6041551875764375,-0.851698055365971,-1.8602526321080142,1.9645695219302741,-0.3847767743976935,-0.4578661317347507,-0.22928528492191647,-0.18154738379419127,-0.013601631933602351,-0.9088054255793226,-0.6373125539952396,-1.0202325522781832,-0.235247456679214,-0.9038165013618854,-0.6163181672399272,-0.9824103349895019,-0.1372305762699081,-0.7246995403250404,-0.508371865110658,-0.5238630503466414,-0.5514392890825154,undefined,1495451782395
903d185fccf839df,-0.32302273447430496,-0.3468159616814806,1.4000299209052296,1.27035921133556,-1.0215663368049375,-1.8051381741962331,1.8771126993791307,-0.9605136533899337,-0.4496940325717852,0.020478293298333172,-0.0254883227484031,-0.08024009685699761,-0.8696384803921569,-0.5762074972346992,-1.0560220714143143,-0.24535046940689212,-0.9114556509081335,-0.5753440212208779,-0.9819345512259476,-0.055880589852226485,-0.6890189093665515,-0.520389695226437,-0.5512790094250251,-0.5557259555252807,undefined,1495451783860
903d185fccf839df,-0.4228156919458391,-0.29868061492355746,1.188209823204219,1.0777859898490532,-1.0295583244020876,-1.772337827958916,1.8374420675153118,-1.1636564819793036,-0.5682065651615134,-0.008850846181810179,0.015535541392114242,-0.1300972298339589,-0.22555982620320855,-0.5984275102221653,-1.05286417374969,-0.2574740846801058,-0.9221696425016122,-0.6128540474747172,-0.9664785963419231,-0.05153822787289137,-0.705429333729915,-0.5148738621426004,-0.5159293089349465,-0.5319215192596889,undefined,1495451785339
903d185fccf839df,-0.49350243916566194,-0.2435011758721547,0.8947248499015943,0.9444385457764441,-0.9926943892890167,-1.7942606284899119,1.892552281799327,-0.840675470143603,-0.6016943356829076,0.053302473213476816,0.016175511829503594,-0.09812928118076135,-0.02102133467023172,-0.6799008911762076,-1.0623378520190951,-0.22312382727363952,-0.9237977869395544,-0.6313145779621148,-0.9718241595764368,0.05440307744375081,-0.704924847433243,-0.48360310719238436,-0.526616384460022,-0.5329128237667516,undefined,1495451786838
903d185fccf839df,-0.6099277632482436,-0.3896680565443419,1.0746438987523337,1.1717384468760348,-0.9431584750984675,-1.8010806407385902,1.9589864266552353,-0.4196084434711943,-0.6104766933552392,-0.010425187453719943,-0.009340533495462551,-0.15942848869565293,-0.9392686051693405,-0.7474867615848132,-1.0497062760850657,-0.20695895037991152,-0.9790925073912387,-0.6815221541076784,-0.9621545671956684,-0.004896339012380632,-0.7318913613855118,-0.4934661355859026,-0.5519958745518668,-0.5235220927837206,undefined,1495451788340
903d185fccf839df,-0.5226087874390122,-0.4912217096753266,0.9789425311601665,1.0109757269902604,-0.9245722211081002,-1.8108424821833005,1.8740647294054376,-1.0114673849623133,-0.5859368575237777,0.13971849624497631,-0.03838613114485761,0.04110391013870983,-0.9653799019607844,-0.7511900808942561,-1.057074708877345,-0.2008971286109439,-1.0142884810918957,-0.7313560879604424,-0.9548359027005768,-0.002709759570535444,-0.7518948279628382,-0.48072040905630486,-0.59863703735582,-0.5067778511447525,undefined,1495451789833
903d185fccf839df,-0.4131136333637386,-0.38732002577984864,0.9412997662115725,1.0765318888517783,-0.8106066963914698,-1.79351760165917,1.9673807676913673,-0.3195269088423308,-0.6059903889675932,0.15884873789429044,-0.029793149380347148,0.014390165250526981,-0.7826008244206774,-0.7511901003204179,-1.0339167951241783,-0.2089795670578079,-0.9754277181839404,-0.7337372749270951,-0.9784711306677957,-0.015274890233504458,-0.7624569207114117,-0.48287956129236526,-0.581919549908675,-0.489786310651873,undefined,1495451791345
903d185fccf839df,-0.33965485954748426,-0.2693298065615034,0.7065117875694726,0.7624060609445458,-0.8663551728055698,-1.7821252915659695,1.9319125779990431,-0.5337265986960844,-0.6211660285240602,0.2268909658764058,-0.042006328983030576,0.029703311036560893,-0.8348234180035651,-0.7363767648041611,-1.03286414293668,-0.2008971286109439,-0.9881330824779334,-0.754616990353263,-0.9789958917282289,-0.0117024525727547,-0.7668400686447271,-0.4797501137859339,-0.5918154733214338,-0.5312058259957338,undefined,1495451792833
903d185fccf839df,-0.29530243400458017,-0.27402595577446687,0.5546647061520419,0.6632521679189223,-0.8625186080502836,-1.7644323899724133,1.8737886126120162,-0.8870410214458919,-0.5002208266512762,0.02341321145732346,0.012865093417416611,0.06185866526192005,-0.7608414104278075,-0.7141567323905332,-1.0054957014180925,-0.2291855925131641,-0.9716386911307848,-0.7481320561826403,-0.9671432950512823,0.007176040911663993,-0.7529302196506373,-0.471143642915422,-0.6041931716665783,-0.5263732815478844,undefined,1495451794343
903d185fccf839df,-0.32995273195456426,-0.3250963775229969,0.6127238170695141,0.7256005844760534,-0.9171768017186028,-1.795732707067637,1.936225476629858,-0.5529555404048285,-0.437463665717736,-0.0659278124216016,0.03916817653223938,0.06719141226158147,-0.5563029188948306,-0.7298959382053212,-1.029706237909822,-0.25747416947427043,-0.9696632634069983,-0.7482333851030416,-0.9920169572652072,0.019494798439914234,-0.7611468604049205,-0.46346579995557674,-0.6314994740858045,-0.5343194490373543,undefined,1495451795873
903d185fccf839df,-0.32856678766716796,-0.4178448056821608,0.910037109378253,0.9147024606144832,-0.8252946750432576,-1.790596735047551,1.9520095674938789,-0.4569211331964701,-0.3579880111194195,0.12645631324007028,0.05371830085010468,0.12990280655116723,-0.16028158422459893,-0.6595325475565438,-1.0139167643111684,-0.2594947578874453,-0.952630971496811,-0.7290698962452105,-0.979814519775276,0.033815353458849944,-0.7459406572610844,-0.4579111247231402,-0.6175651952893967,-0.5294907553875866,undefined,1495451797367
903d185fccf839df,-0.4782563273906984,-0.4354552556258024,0.9030188633829763,0.9903200224176787,-0.7559793628430548,-1.7989726799146424,1.8734362199954095,-0.9576566697615729,-0.3509059734203215,0.28967653587078085,-0.02023725980181215,0.01686578482066277,-0.6607481060606061,-0.6400900159569257,-0.9802325274633324,0.005204868063398404,-0.887834206024112,-0.7135921812997045,-0.9494413642000487,0.04442488406759255,-0.7255501313827737,-0.45945796626325885,-0.575992861406874,-0.5165040735426359,undefined,1495451798842
903d185fccf839df,-0.4020255614834223,-0.42136689567088914,1.2430790071325286,1.273187667021324,-0.7331759744072647,-1.79151911417558,1.9255642282477141,-0.5730865490929179,-0.38294891324357455,0.37012745311240547,0.01062810803195432,-0.03833471526197544,-0.4083389037433155,-0.6650875491845635,-0.9644430391402112,-0.11603156731595408,-0.935480299359215,-0.7265050541389166,-0.9531846575358232,0.02217413160931633,-0.7416513717885529,-0.4414401938534502,-0.6087042936243123,-0.5011415462502798,undefined,1495451800335
903d185fccf839df,-0.371533234417266,-0.48828672236869664,1.207988539566994,1.2580906520185593,-0.7427313795680776,-1.802424611225022,1.949448138920288,-0.441108590311551,-0.3767802724350218,0.4380808913126758,0.027636156613665745,-0.06402531819703162,-0.5867660984848485,-0.6956400710894464,-0.968653574267866,-0.03520732417092165,-0.9046844848909842,-0.7264543906282541,-0.9640856880069464,0.018694082696133915,-0.7486062818253661,-0.4407247523903361,-0.5781821775243965,-0.48492316294723903,undefined,1495451801839
903d185fccf839df,-0.17471917354358052,-0.43897740407051544,0.8519779984607807,0.940336236834523,-0.897839688675602,-1.8342955907765746,1.9737186238931255,-0.35627370822040566,-0.4089550907663045,0.5013041642738206,0.05091967061530098,0.01522582237185327,-0.8913978943850268,-0.6789750791561618,-0.9581272069997938,-0.06955760984210947,-0.9033907550649996,-0.6948086707788833,-0.9559064165386562,-0.001986029067047969,-0.7373157367704906,-0.45843523727837454,-0.5696045896576297,-0.47995352212431314,undefined,1495451803350
903d185fccf839df,-0.31609266798322616,-0.4154968041456599,0.7837109686958188,0.7651771753801456,-0.9891046761393192,-1.8252068994309425,1.8979249865121433,-0.8694378478788004,-0.417945745615256,0.2596979351370838,0.09412903249360723,0.12071558645332435,-0.7390819964349377,-0.6984175719034562,-0.9981272612635796,-0.15240249792975982,-0.9399887149287037,-0.6930291142920827,-0.9989438000698201,-0.08353619675638543,-0.761251388889568,-0.47413826460786684,-0.5761103181737482,-0.48998595025073555,undefined,1495451804843
903d185fccf839df,-0.6126997898446751,-0.4178448641381455,0.5674249223825908,0.6381227797150519,-1.1652266690756798,-1.824887794363005,1.8753586120887045,-1.0529727754441829,-0.44200710676043503,-0.16435401002610017,0.07831205165154172,0.026252194420157245,-0.7042669340463459,-0.7141567388659205,-0.986548285981412,-0.2514123477053028,-0.968530626208739,-0.6872218055766308,-0.9822424128497469,-0.16564070961262323,-0.7689995676510297,-0.4856743540699718,-0.6093271344595095,-0.4930624533381919,undefined,1495451806346
903d185fccf839df,-0.6944746089448142,-0.3192261983137907,0.5699769656287006,0.5200488631995932,-1.1352850067311495,-1.787953048229036,1.8792928033079275,-0.9582635216150583,-0.4030882129596655,-0.45553215037260325,0.23202378742201776,0.03644321593695783,-0.9001016599821747,-0.7197117534447147,-0.9633903722282454,-0.27768022319434815,-0.9634147218224108,-0.6608324287746385,-0.9512745272244628,-0.2463593592285147,-0.7638719370358705,-0.4711124245212864,-0.6082561645885423,-0.5283209354974555,undefined,1495451807885
903d185fccf839df,-0.6431920479000118,-0.3579692174177946,0.3824012787657329,0.2567379181047049,-1.0627296967249855,-1.7820763764116405,1.8834347453344529,-0.9313139425735781,-0.40212802733699154,-0.44945665195309675,0.22523467466832786,-0.06956929881014662,-0.4300983177361854,-0.6761975653913774,-0.9886535829941745,-0.35648396272037036,-0.9448247120956501,-0.632315182426426,-0.958103415557659,-0.300946847366314,-0.7643893093112029,-0.4670735688017928,-0.5855739858676436,-0.5122770071421039,undefined,1495451809352
903d185fccf839df,-0.4574661279174621,-0.2763740596089409,0.5100036952081713,0.5469202082750677,-0.8973048359185103,-1.8090769189644373,1.8855438456172533,-0.8984792106610381,-0.26548348465870586,-0.4442960295071681,0.2512939051123477,-0.09940057330898676,-0.5388953877005348,-0.6761975653913774,-0.9728640799465857,-0.38477245488731204,-0.9280172194315033,-0.6408646560863885,-0.9610770596174771,-0.2883663171001401,-0.7658903075540857,-0.4593198604808859,-0.6013334062157013,-0.4841821914202982,undefined,1495451810842
903d185fccf839df,-0.3147065511687812,-0.47126325819518405,0.42387236272044093,0.594205425635663,-0.8193392489900391,-1.8145715945788152,1.8938987369826261,-0.8591415229604591,-0.27154353055492114,-0.11450881508420405,0.14340351620160716,-0.12739887551840892,-0.7042669340463459,-0.6484225313497298,-0.9644430244157436,-0.3605250971496377,-0.8714809041918596,-0.6475839093723947,-0.9076704022325025,-0.22555606101913397,-0.7402798894496386,-0.4557570576664051,-0.5950943394825694,-0.4713268754683014,undefined,1495451812346
903d185fccf839df,-0.33826881174385875,-0.4237149702773708,0.7128911332738989,0.8227582498490594,-0.7612456353616139,-1.8354672020327083,1.9106663816747034,-0.7442772350506617,-0.3293421006014529,0.247100336436371,0.11079886804439758,-0.00615383798966322,-0.7782489416221035,-0.6021308360069954,-0.9023376938618218,-0.2918245116749013,-0.8598248331013781,-0.6791093029541587,-0.8924173541359713,-0.15352213428492803,-0.7328123550464042,-0.43711136515684956,-0.5860724601500064,-0.5047387391253404,undefined,1495451813838
903d185fccf839df,-0.6736843404607584,-0.474198333185791,0.6139995845556195,0.6946378124050929,-0.8606774646734583,-1.8042018226441632,1.8844998246411646,-0.9151769676835309,-0.403862630213536,0.18883951793051415,0.13196966387851414,-0.08401070638587317,-0.6433405748663101,-0.5688008586158136,-0.9033903239626186,-0.21706199137231114,-0.8396611902647367,-0.655411427414378,-0.899484133390566,-0.11693542914308389,-0.7170117931266191,-0.4380791446343325,-0.5782583368044434,-0.5000202711445786,undefined,1495451815344
903d185fccf839df,-0.6224018829321853,-0.43134620909493737,0.5954976522267478,0.6924890069698563,-0.864318603021492,-1.8194513517966857,1.8728603008932843,-1.0092134052942279,-0.39526656283999234,0.18952574611178355,0.14497626434313998,-0.021776530582896032,-0.8087121212121212,-0.6243508489944615,-0.901285063761025,-0.13017582753178572,-0.8340310441971944,-0.6864491859552257,-0.9125121949982564,-0.09888845074347817,-0.7342835557710972,-0.43797849168807584,-0.5768360812661966,-0.47284442264834864,undefined,1495451816847
903d185fccf839df,-0.34935698714040425,-0.5141153530580453,0.6356919521475527,0.6561398488062145,-0.8081689842668511,-1.8392289205644101,1.8905036643773858,-0.8951559601494028,-0.3767685557644427,0.0941105702511918,0.06621932818524236,-0.017975884585881067,-0.7042669340463459,-0.6012050239869497,-0.9107587199437288,0.03349338849506167,-0.8524623797259724,-0.6646068620215176,-0.8837902866308814,0.018740273724533726,-0.6927593039133904,-0.43171599951668926,-0.5343662713063816,-0.4949339723379741,undefined,1495451818346
903d185fccf839df,-0.39925346587617133,-0.5375960114388855,0.5808232764931418,0.6768026210247833,-0.9447836145523688,-1.8608908445783343,1.9283886361201483,-0.7091948824704967,-0.4313928551247909,-0.1037400623999974,0.07841148995133476,0.06235789176249193,-0.6650999888591801,-0.6484225443005044,-0.9360219380718917,0.11835889326060842,-0.8687977467486129,-0.6443921064455358,-0.8783467683621816,-0.05777459818440124,-0.6961114580244903,-0.41543979290848654,-0.5571404816855647,-0.5200148469034012,undefined,1495451819878
903d185fccf839df,-0.2828282798152287,-0.4918087539014403,0.6784388035883663,0.6836357431266865,-0.8612020399176431,-1.8496289725971156,1.9153632001855572,-0.7616794782234534,-0.42187973425945186,-0.04143215655794286,0.04043161307676543,0.006211451284232234,-0.6259330436720143,-0.6669392379785276,-0.9497061588311855,0.17695655080183134,-0.8182532285405478,-0.622429458708037,-0.8733930250686672,-0.01998681191491785,-0.6802578258060528,-0.4178883392516467,-0.5511778334650957,-0.49916027202363966,undefined,1495451821358
903d185fccf839df,-0.23986176405431114,-0.5205725180373806,0.5980491871989587,0.6939540979882409,-0.846637487709817,-1.8416210487704558,1.8827483451562446,-0.9761370407885492,-0.3934641610481613,-0.012995617752119977,0.205069375223792,0.06270978047829819,-0.7956564728163993,-0.6928625702754365,-0.9360219380718917,0.14462676874965377,-0.875442092818513,-0.6309725993412721,-0.8754360933308237,0.02032631798075175,-0.6799048354757412,-0.42455265696293687,-0.571609080929453,-0.4667585738104785,undefined,1495451822847
903d185fccf839df,-0.37153316540644654,-0.568707806339319,0.7345840091397309,0.6981504063805272,-0.8322889381465817,-1.856959089898471,1.8294500790764652,-1.3452608593794042,-0.2933779017684933,0.09427653070181123,0.2017959424952442,-0.09743411706071636,-0.6650999888591801,-0.665087562135338,-0.9718114277590876,0.14260623686592197,-0.8560877032617633,-0.5951091389529282,-0.8492890114639389,0.045056220465513296,-0.6529189382535198,-0.4065482495498777,-0.5687342997572385,-0.4859684815341249,undefined,1495451824363
903d185fccf839df,-0.2454058517525839,-0.542879146421978,0.5916693332206338,0.6616573276386083,-0.6462412506348979,-1.8283979586525834,1.8917764866349855,-0.8225103845484103,-0.19805822760437394,0.20028303972717867,0.19945494945659714,0.017187597105225542,-0.5475991532976827,-0.6632358603905993,-0.9339166631458304,0.01732853986605519,-0.9279468847998298,-0.5839124935125527,-0.8704893480226618,0.02123482977574568,-0.6574712382250031,-0.41463832632348385,-0.5469707117904214,-0.5033443936845032,undefined,1495451825837
903d185fccf839df,0.29929785752194304,-0.4783073504886637,0.7900908226741439,0.8083423262871062,-0.3051366853756306,-1.8032118941350213,1.9420189347077919,-0.3258720987790454,-0.23320535849274876,0.4102058193663731,0.09125617522215994,-0.015025782517799258,-0.3343568961675579,-0.6419416788493408,-0.931811395582003,0.09815289606997377,-0.9327563490501316,-0.6070214051519193,-0.880473797529055,0.13144150554453155,-0.6417740924800415,-0.4592976549580509,-0.5936391205934577,-0.5219960928780487,undefined,1495451827343
903d185fccf839df,0.1246600094197096,-0.42371492643538233,0.6535562548703212,0.7401541452736005,-0.33966576727097175,-1.8062049661272286,1.9183086015390374,-0.48327126170701845,-0.25231853663987164,0.2518356995593447,0.06033054694062938,0.07517000146156529,-0.5563029188948306,-0.6187958344156672,-0.9160219072588818,0.10421471783894139,-0.9144869173692999,-0.6147729285009537,-0.8839652063644969,0.3843763699740533,-0.5985647057548616,-0.4405844881835032,-0.6335366780957965,-0.5149725111834951,undefined,1495451828860
903d185fccf839df,-0.10403235731293821,-0.20123606677942246,0.37921160591351977,0.4933443374682055,-0.5781293728842525,-1.6736456345186945,1.817873678468126,-0.9784838972945137,-0.5201343608148196,-0.3459998447770143,0.007822692784251713,0.02388563876098457,-0.6607481060606061,-0.6206475102588568,-0.91286399486979,0.05369955527402554,-0.8896655638993775,-0.6683179662856296,-0.9084540455951087,0.4323425291143259,-0.60956143031579,-0.4286175573505178,-0.673502630019323,-0.5236879594405383,undefined,1495451830371
903d185fccf839df,-0.38123529299936654,-0.24584920663664792,0.18079037059695904,0.3186400836156444,-0.9895572516582749,-1.6223534577787995,1.857336544335577,-0.8103666382364206,-0.43762496417313884,-0.7220152809968853,0.008227614806821952,-0.08478033824057751,-0.7173225824420678,-0.6354608652012754,-0.8939166236065121,0.021369744957126426,-0.8579328756114663,-0.6864048540705142,-0.9034373328877592,0.616477139007131,-0.5788877602637446,-0.4431491018129992,-0.654695924083832,-0.5272992684836988,undefined,1495451831848
903d185fccf839df,-0.35905911473332425,-0.37264456314283695,0.10295279745366133,-0.004363098616153704,-0.958854446784651,-1.5725636396997327,1.854101881885205,-0.7811720698635147,-0.5019659434846279,-0.6615746445170863,-0.0062283190966834065,0.0008013521903533488,-0.9001016599821747,-0.6937883887708695,-0.8686534202028169,0.3749761090293096,-0.7964532985675382,-0.7546106569666524,-0.9148421351244591,0.8427418927061924,-0.5531173278401637,-0.49114515510845475,-0.6174770550794735,-0.5209816440305484,undefined,1495451833338
903d185fccf839df,-0.42835977964411187,-0.6385626495717488,-0.01188965689517764,-0.11841689811964155,-0.9345287739308401,-1.6602059217318528,1.8986613210067462,-0.664523838643804,-0.44538780105460274,-0.7106569695537649,-0.009987806240126459,0.04941051899500336,-0.7303782308377896,-0.7428576043537756,-0.9002324262979944,0.3547699987797888,-0.7901810951330868,-0.809859258997923,-0.9566970571709189,0.7980248039530711,-0.5987940106334031,-0.4494185078651188,-0.671226720244468,-0.4645785556387696,undefined,1495451834829
903d185fccf839df,-0.48380041508897115,-0.650889964532298,-0.09100299752458084,-0.2735560397545562,-1.033713748954397,-1.7109483979637825,1.9192921558908542,-0.6366005725240489,-0.4160337887421737,-0.7151621875996773,-0.021102750563282643,-0.09147994258511098,-0.669451871657754,-0.7335992704655385,-0.9328640404072674,0.2517190004426177,-0.8741842294135314,-0.8085293400283908,-0.9826062477187962,0.6344317208644918,-0.6360670123813434,-0.4768925195251386,-0.6758312128487731,-0.4782980772620727,undefined,1495451836349
903d185fccf839df,-0.19828143411865803,-0.568707806339319,0.04425580279313637,-0.00708213299113876,-0.892665990969311,-1.7639129681187062,1.9552179450036364,-0.4253545052005262,-0.4113145594666742,-0.3444643732072556,0.008072320020217523,0.031019885056559178,-0.8217677696078431,-0.6641617112629686,-0.8833902784251412,0.3527493538371709,-0.8154823220266748,-0.7311724342160411,-0.9372669130605332,0.5462602211620704,-0.6005209304581983,-0.46790767376929043,-0.7132027642803861,-0.5152273046168765,undefined,1495451837846
903d185fccf839df,-0.2384757507560954,-0.430759194096816,0.7269276252644521,0.8157282570890203,-0.8275986711638704,-1.794400379847573,1.8993109023651806,-0.7792967367621466,-0.4533929347680068,-0.20586217775768048,0.023791758421423927,0.07467771537878742,-0.5345435049019608,-0.6363867290244193,-0.8497060342150714,0.11835889326060842,-0.856137635995257,-0.6789319804979717,-0.9312146714992809,0.4334050147958695,-0.6016131363401783,-0.47625630918664197,-0.7035169945068633,-0.5513320064271364,undefined,1495451839348
903d185fccf839df,-0.02918757019846811,-0.5105932630693171,1.0931463393551044,1.2883060368004509,-0.7314274034660881,-1.8415232192092919,1.9661263760559708,-0.3254421770040378,-0.5798901788686691,-0.07530002071585325,0.0170442901860065,0.08241688924356186,-0.6041736296791445,-0.5604683173214604,-0.8739165854312685,0.01530786665871573,-0.8239277763343017,-0.6002071568968623,-0.9373998517514939,0.3099094847533295,-0.6068732385589456,-0.43141853534906993,-0.5964957258350341,-0.49637615452734013,undefined,1495451840838
903d185fccf839df,-0.24956389164723114,-0.32157419985029156,1.244354774618634,1.2013376907649178,-0.9306202109727212,-1.7754473613597772,1.9046940964374806,-0.6659238280541444,-0.6254504883387753,-0.2496570311041521,-0.01861739736761987,-0.017146595541392244,-0.7347301136363636,-0.5706524567543559,-0.8054954595480982,0.09411160618473792,-0.8352104372356784,-0.5567441640568912,-0.8738198320369415,0.266994017859946,-0.5872587196882632,-0.45026398079950714,-0.5447477866291548,-0.485411691698528,undefined,1495451842387
903d185fccf839df,-0.13729667647011626,-0.32861846751172524,1.0976122879673218,1.2883060368004509,-0.8961734061834816,-1.8032445041907923,1.9476861606481877,-0.4163103399920785,-0.5860599094598163,-0.20609806527131141,-0.05359653142313557,0.15296272231621544,-0.5432472704991087,-0.5743558731946078,-0.7770743879287139,0.08804984094521337,-0.8422712043626603,-0.5155546987224072,-0.8601340699071073,0.22977597611824618,-0.5754363174972607,-0.46943157200504243,-0.488036961421332,-0.44510596262901503,undefined,1495451843860
903d185fccf839df,-0.09571624301823396,-0.36031727741028013,1.193314163833388,1.1387682567483233,-0.9239653555523742,-1.8202828892873313,1.8841158633840152,-0.9024757482001613,-0.48202081286174736,-0.19800082279627068,0.020599954979832337,0.18492606434573605,0.5969460227272728,-0.6095374811012684,-0.7960217886409269,0.05976134877827163,-0.8432126306362331,-0.5469850970361404,-0.8420543107485831,0.25495243496141706,-0.5832522108240379,-0.47510395181755083,-0.4784375652169019,-0.48520008988758817,undefined,1495451845345
903d185fccf839df,-0.047205777580682624,-0.3755796965894286,0.8755842714188214,0.9244553291052602,-0.8491060517822113,-1.8113898532296122,1.917248794409514,-0.6737470313024475,-0.4178492257547925,-0.053537087869323326,0.0835039281269088,0.19146282389045535,0.570834725935829,-0.6123150337183764,-0.7897059565005095,0.039555238528750834,-0.8790372306870774,-0.5519311264468235,-0.8345887140325333,0.22213834811924985,-0.5931532295528341,-0.46045158603363107,-0.4809544038974975,-0.4387826278995614,undefined,1495451846837
903d185fccf839df,-0.14838488637207148,-0.564598672124477,0.7869006415480319,0.8768335329314244,-0.9276270632539533,-1.8235647854221966,1.916270510139842,-0.7353904101015886,-0.4030448877649471,-0.127709091560159,0.11299969531898965,0.16494444406336,-0.7651932932263815,-0.6150925733847099,-0.8128638997026111,0.013287306510262416,-0.902925850620126,-0.5478717103247485,-0.871133056219869,0.20560041951388763,-0.6076289339309118,-0.4590124553781344,-0.447987021368533,-0.43281649983409304,undefined,1495451848341
903d185fccf839df,-0.31332060688138497,-0.40258235727502006,0.654832276493376,0.8439000307671122,-0.9004213970778527,-1.750459282280382,1.8963786568379102,-0.6997253403965311,-0.56276898270339,-0.0030470782710504,0.09714531248075227,0.07547979116993384,-0.6041736296791445,-0.6021308813347063,-0.8412849713219955,-0.08370187005794111,-0.8906216481555511,-0.5373906882784414,-0.8901993646170511,0.07937936087137068,-0.6268758682030898,-0.4573855781364264,-0.4625967205148694,-0.4249855299099329,undefined,1495451849845
903d185fccf839df,-0.04304780669685484,-0.3004416306899293,0.7473442253702798,0.7519115128262145,-0.7503427924117722,-1.7165362427989508,1.858640942566372,-0.8039706508788579,-0.599202825541805,-0.47430069349646364,0.07236713816109906,0.048910960672682795,-0.5432472704991087,-0.6049083432963925,-0.7791796260436061,-0.05339270468365991,-0.8598774682855641,-0.5246994696860046,-0.8510172225943536,0.1582963917911673,-0.5969174498532845,-0.45943549948983575,-0.46895033130043656,-0.4415912691784303,undefined,1495451851343
903d185fccf839df,0.08446562377145278,-0.10848760939226625,0.8296477471257949,0.9383469274567753,-0.5901944895948353,-1.6744795000068127,1.910164100212126,-0.360557031697087,-0.6761335384116293,0.015231639025916325,0.029601840129566532,0.05793607051378547,-0.7042669340463459,-0.590095014255523,-0.7833901538090272,0.08804989747465644,-0.8948578082927593,-0.5191074804354774,-0.8508423027200456,0.3163306381199082,-0.5650489105283867,-0.4576369772344376,-0.43225112324061987,-0.46837856031772906,undefined,1495451852839
903d185fccf839df,-0.14145475087017326,-0.1847996176040313,0.8200774578844084,0.8246454020699774,-0.5818425053600574,-1.6526149312255018,1.893591057833793,-0.4570385160488252,-0.5849445068659537,-0.05706019015729659,0.03231688484464132,-0.12208011166003017,-0.5301916221033868,-0.5873175134415132,-0.7991796642188498,0.11431777296370178,-0.9277588976088555,-0.49981100120549077,-0.8430828384240272,0.3114647287530778,-0.5548448648695452,-0.4526283808107987,-0.4350513778406809,-0.4860843412989617,undefined,1495451854381
903d185fccf839df,-0.30361847928846497,-0.2200205759472992,0.8698423011835492,0.8296760776345837,-0.6585223774880243,-1.709515917411818,1.8728813293695368,-0.7418148065243526,-0.502451669292069,0.22844253935595168,-0.01539927274031664,-0.09977631264536092,-0.7390819964349377,-0.5845399996767288,-0.7865480588358852,0.15877108549492847,-0.960181304365019,-0.5024328409731176,-0.8467351737322381,0.3914134551408309,-0.543564027801539,-0.4458292570740793,-0.4117151575242247,-0.4632418550419136,undefined,1495451855833
903d185fccf839df,0.037341102621297736,-0.3761667408155423,0.8596338740621606,0.7892328979007408,-0.606857328873779,-1.708414186419595,1.8968599077291919,-0.5697196062762319,-0.48063239458883494,0.30403452881518117,-0.1552463732438041,-0.020446856437219326,-0.8174158868092692,-0.5873175393430623,-0.8202323030459551,0.35274932557244937,-0.9327852911805778,-0.5015968920478185,-0.8373104694263004,0.3829135113697574,-0.5417135111570156,-0.4346411090947314,-0.4612615337598576,-0.42057141315990676,undefined,1495451857337
903d185fccf839df,0.004076748958709945,-0.3738185931390797,0.7441542983811172,0.7127369126081605,-0.5901019230547221,-1.7008767699288159,1.9132225674017156,-0.423992825509101,-0.3987389745273214,0.3740240738478828,-0.26456928604277186,0.007838188079708546,-0.9088054255793226,-0.5252866187593781,-0.834969175992747,0.24969841202944282,-0.8267563161533844,-0.4543341326802857,-0.8624779989571602,0.3547189603289078,-0.5211304391800566,-0.483544446409614,-0.519429229743248,-0.4415147590400268,undefined,1495451858854
903d185fccf839df,0.024866982937355963,-0.2481972958571258,2.2575172140089643,2.1684704524492786,-0.44629759654687945,-1.703261912181746,1.8158724024187891,-0.7892524738824193,-0.4005386260916761,0.617188693269802,-0.565291357885991,-0.031440846573314654,-0.8696384803921569,-0.25031396046775584,-0.7886533190374788,0.16281231885072123,-0.5998314084274052,-0.1279532131106397,-0.8174815090778719,0.29625106156927783,-0.3442987396981639,-0.24010766684345525,-0.34356728049578616,-0.46591725396843786,undefined,1495451860352
903d185fccf839df,-0.12620867360061944,-0.2299998309153628,3.151371250438238,3.1389136790276675,-0.48727580538401166,-1.7603818466058294,1.7570699407983095,-1.1869997801464347,-0.4430900872205585,1.393526804676997,-0.5961758768316308,-0.002354075966186151,-0.8043602384135473,0.06169208517991288,-0.7760217283789819,0.21534818288769808,-0.47302053610547673,0.02148525931539511,-0.8054190071509487,0.37429037967163137,-0.24510674995052317,-0.2788956288459658,-0.16313916213510832,-0.40730684459451,undefined,1495451861835
903d185fccf839df,0.013778807540810477,-0.22236863593978476,3.601169253770511,3.4767114483479533,-0.4494553004323594,-1.7499887781016426,1.816635038483414,-0.7340709677026712,-0.5347150755167847,1.3722657516155967,-0.6074473669555182,-0.09988987840198468,-0.5867660984848485,0.42924812120622946,-0.799179656856616,0.2476778518809895,-0.19738046521539288,0.21191054251835412,-0.8356242399135443,0.4010220809125355,-0.14432288698825546,-0.24216619009577492,-0.0324539402206068,-0.4712515614231981,undefined,1495451863342
903d185fccf839df,0.33533430679178183,-0.28928837495361526,4.150496943701065,3.948448265513293,-0.4028508064608788,-1.7091432387822412,1.8052637591407936,-0.6865658127080942,-0.6345478301526649,2.3795660354374673,-0.7337298027025208,-0.046097293304435544,-0.8217677696078431,0.646819035571367,-0.7865480735603528,0.5042949828555261,0.0933058173363479,0.4225125843273138,-0.8373734428712789,0.5252875349909524,-0.014811294955781734,-0.20810137110256333,0.15729870193937498,-0.48803607178704833,undefined,1495451864910
903d185fccf839df,0.43374125096510024,-0.21297642519783488,4.260872941163788,3.8879504094641657,-0.2976075545873267,-1.6244684060050942,1.7315634448585828,-0.8190718368496239,-0.7277505468397982,2.669009067506963,-0.9113970445124016,0.014645454155303508,-0.8304715352049912,1.0153009742731511,-0.6823374138165839,0.7326237347220071,0.3267846881230737,0.6619231868859728,-0.7458481607966626,0.6961948821166583,0.16872742165847923,-0.23215016271361688,0.1808862537903487,-0.6693943437165251,undefined,1495451866446
903d185fccf839df,0.5765007587029617,-0.25641547660283287,3.9380394705309008,3.7621447027218,-0.3087881116792911,-1.5768704028699432,1.6702442559548452,-1.154413194692791,-0.8631824125809396,2.5537702077144377,-0.9139712959611302,0.14240358337019898,-0.6389886920677362,0.8199499369123469,-0.7560217122904396,0.979137895365948,0.2844420609541628,0.5692342214021012,-0.751802446057497,0.8688730498494207,0.13804845220157635,-0.22415876996554146,0.3993781019456988,-0.6517590609117834,undefined,1495451867835
903d185fccf839df,0.5848168384922562,-0.3532730682048312,3.9405915137770107,3.8247746681651837,-0.2777253040864553,-1.6111917440593142,1.6579393903593795,-1.2882183668251976,-0.8564913624413446,2.737600990952683,-0.9488729062232377,0.13731512465104165,-0.3778757241532977,0.7606966207488689,-0.8086533645749563,0.8720456354082625,0.2817919632720592,0.5271011456658057,-0.7725899714167873,0.891154598835107,0.11349349900424274,-0.18941358783256348,0.49495093752846986,-0.5526478499679272,undefined,1495451869395
903d185fccf839df,0.42542517117580575,-0.44836967326844995,4.000564530060591,3.7373837739041282,-0.1730580488204254,-1.6874696701537426,1.7993361732952704,-0.543155481432693,-0.7557452564255451,1.7569712631670236,-0.8161123031249474,0.19967704403373343,-0.3038937165775401,0.6931107503402633,-0.7465480192965669,0.9003340993104827,0.20027566081609963,0.46731182336111843,-0.7359126888195967,0.9652519241248934,0.09866846223629208,-0.11601455592856798,0.2502730636336581,-0.5018265057606526,undefined,1495451870887
903d185fccf839df,0.3935469343276629,-0.3749927108192995,3.5660787862049763,3.358000754582715,-0.2380533679363857,-1.7100423277370147,1.8382704491902897,-0.46364299007964793,-0.7026980622453168,1.652841423804538,-0.7065682704110221,0.09860053040623405,-0.669451871657754,0.7208857843819108,-0.7486532794981605,0.8902311289798869,0.23386613201200332,0.46097887927401315,-0.7245918495551803,0.9994826686346968,0.10210390320476335,-0.11044823183460838,0.2573733529809959,-0.4996378751024149,undefined,1495451872352
903d185fccf839df,0.3575106575848728,-0.3679485016138505,3.0301486879741244,2.946395029768475,-0.3074715388794348,-1.7352446958767214,2.053425396781512,0.6627001312743744,-0.6095738876850493,0.8790097290016787,-0.45558167585347864,-0.016521215679196864,-0.6259330436720143,0.6162664748141604,-0.7539164447266122,0.8983134543678648,0.01532400293178765,0.32135646979708604,-0.722107982201676,0.9946013618186308,0.02577669084300149,-0.11312423782416793,0.30223324489354225,-0.4794317169696468,undefined,1495451873875
903d185fccf839df,0.2882097166308073,-0.3955382065255557,2.6875370092523614,2.7865181769226153,-0.3004464060877142,-1.728762423406597,1.968130275820051,0.12468262275026358,-0.5527887860519598,0.4180389803188879,-0.3756159618891488,-0.08196232014778317,-0.45620961452762926,0.5783073660934901,-0.7633901303582511,0.8720455506140978,-0.06276367034860156,0.2745876812710663,-0.7012364949222366,1.012555950905252,0.012120757646273,-0.09023663610352031,0.21838290850773567,-0.4927243165213212,undefined,1495451875372
903d185fccf839df,0.13159007591078836,-0.33624963325931095,2.4521108927302593,2.4471331933443055,-0.396926248173556,-1.747494164884025,1.951725554481175,-0.06215898234688154,-0.5314083279565124,0.2914381456681497,-0.3258562692831959,-0.12095605405489071,-0.7869527072192514,0.4755397841720275,-0.8012849096959758,0.7629328153021238,-0.16494094070380533,0.17992917272858513,-0.7003618936727591,0.9354867293195431,-0.049666391067874405,-0.09884757320371836,0.10975952456305546,-0.4905351855915004,undefined,1495451876880
903d185fccf839df,0.085851706080488,-0.3532730974328235,1.886832297169145,1.8793718416151624,-0.518955756221526,-1.7437836860715437,1.90799450790265,-0.41900804506511286,-0.4937104551267304,0.2242166684591606,-0.21241351694200422,-0.06613789351296584,-0.7826008244206774,0.09965116799903412,-0.8233902227972807,0.5285423264608397,-0.33143713413036824,0.04556944006767729,-0.7380747042613468,0.8631294321346341,-0.14973113746855324,-0.13217436082392045,0.10237989640636026,-0.3710729148025463,undefined,1495451878387
903d185fccf839df,-0.1567008626451368,-0.3051378675868697,1.459364545171858,1.668704777889638,-0.7400776719287249,-1.7376158608219865,1.884213172397301,-0.6939862513589355,-0.4846376350070966,0.12451396045679347,-0.07740924127917194,-0.02586258692792334,-0.9740836675579323,-0.16976642391069569,-0.825495460912173,0.48610951754862325,-0.5763518897984593,-0.12466008593632534,-0.782833303268173,0.7610223431131568,-0.2647587500126314,-0.1789682749781373,-0.03584028304021189,-0.2856513040966506,undefined,1495451879853
903d185fccf839df,-0.4131136678691483,-0.15897095768669023,1.5084917588648954,1.5870674170339791,-0.9081871007725295,-1.733989235403725,1.794670910985638,-1.3203960098983931,-0.4544584064783218,0.15104381530492453,-0.026434868818419874,0.002044546031448204,-0.8826941287878788,-0.2929023235502729,-0.8307586408650922,0.24767782361626797,-0.6773768844786141,-0.2700454725983396,-0.7983312391336818,0.6548346653079866,-0.3606589911230856,-0.28715353429487817,-0.3683224839738834,-0.3782241186876119,undefined,1495451881392
903d185fccf839df,-0.4893443992710147,-0.15897095768669023,1.65587238339621,1.6783342225880575,-0.9777184155533066,-1.7297919474575558,1.8105312614362568,-1.2262778737726379,-0.4569842022384319,0.23203049281471053,0.04874355879545388,0.006553860987638577,-0.8957497771836007,-0.2817923202942335,-0.8107586174143161,0.38507916415407,-0.6393482176795856,-0.2880626975653762,-0.7908726386351539,0.6468428731848864,-0.3747989269132913,-0.26957667575567046,-0.29424911639625834,-0.35393570164856447,undefined,1495451883039
903d185fccf839df,-0.44360596042989486,-0.2118023952015921,1.978706362302996,2.01719348096728,-0.907785956993614,-1.76273204787217,1.7911206700245854,-1.3907105950383827,-0.4271314152369783,0.6315113983392376,0.038602042567594905,-0.009713270170046395,-0.9740836675579323,-0.34660071579037843,-0.8423376014227923,0.33658459000232904,-0.7824323143917553,-0.3985409010915923,-0.8586367520430601,0.5264116298013138,-0.4691785727529003,-0.4684152447746658,-0.23286704766122165,-0.4303725743755675,undefined,1495451884339
903d185fccf839df,-0.30916256698673766,-0.1871477360525015,1.8600358430849924,1.9398483111051326,-0.7666867678726453,-1.7571861287802646,1.9099537154112731,-0.5761530735480683,-0.45009602611779814,0.5974424810258112,-0.03140851287602797,-0.04308140893782767,-0.9305648395721926,-0.367894897331637,-0.8402323485834324,0.3082960978353873,-0.8219143489611633,-0.4264121860275476,-0.9005966261242117,0.43797835524738626,-0.510228788568443,-0.48768139926946563,-0.3034467066188394,-0.44073434040954185,undefined,1495451885829
903d185fccf839df,-0.12898070019705096,-0.32627036367725115,1.4702111101732487,1.4768786964872003,-0.5849899285618049,-1.8143014023670039,1.867671693421902,-0.9100989457159702,-0.46513824860687736,0.6902554473491985,-0.015409108343212767,0.05905246664699402,-0.9392686051693405,-0.4308516040338178,-0.9370745608104547,0.27596631578320974,-0.8101191633185094,-0.48329468720645874,-0.9172490354785191,0.37918709286244384,-0.5499932820233335,-0.48191429034229505,-0.3091663575823928,-0.42403130786700094,undefined,1495451887410
903d185fccf839df,-0.005625275117980852,-0.2481973396991143,1.0019109203751544,1.1189237618978014,-0.5377785811217463,-1.82039003242579,1.9224821085397783,-0.548589451169232,-0.40179311312100796,0.46293760647119525,0.03147865061664256,0.09150616268835642,-0.8130640040106952,-0.5049182751397143,-0.9444429715160324,0.09209101777156306,-0.8427895067338755,-0.5153520481235636,-0.925729169777804,0.3155453165405598,-0.5860138876709249,-0.4768945452847131,-0.31663337593385915,-0.474794207098715,undefined,1495451889784
903d185fccf839df,-0.0943302297200182,-0.2593505954354283,0.8436839849793987,0.877179343046047,-0.5333865878841634,-1.832278467650493,1.863051119832341,-0.9446599516810321,-0.4429083584156344,0.1959384612281875,0.0792683391488361,0.11726447099106138,-0.26907865418894833,-0.528064119573388,-0.8633902696988328,0.18503898924869536,-0.8585369410274668,-0.5163336545818059,-0.9107070171497823,0.30221025974159366,-0.5830787197519934,-0.4879163727601126,-0.32248111372773686,-0.46494815872351825,undefined,1495451890334
903d185fccf839df,-0.08601425344695289,-0.3239222744567733,0.792004982177201,0.9677193752307224,-0.6099430304473562,-1.8249204008684086,1.8460283821092467,-1.0932713233110836,-0.4366044265582023,0.221731330543042,0.06673539464503855,0.131208183703949,-0.14287405303030304,-0.5502841649377903,-0.8570744817318181,0.0739055524646602,-0.9249575378391737,-0.5817529610750451,-0.8962586030503505,0.26560815457921305,-0.614304283570008,-0.4762995552469431,-0.4058459090542052,-0.46240745944046185,undefined,1495451891859
903d185fccf839df,-0.1871932242167028,-0.3303795125060894,1.0204128527040262,1.04513828871717,-0.5054917763075218,-1.7875570752003735,1.8059553971243816,-1.260120887001159,-0.4944819928838787,0.7647423350425632,0.013361441206792642,-0.03014134120170284,-0.4126907865418895,-0.5808366868426732,-0.8676007753775524,0.10623530625211623,-0.9222313625031359,-0.5939755424886817,-0.883979200359391,0.342923750013143,-0.6010209465785739,-0.4259581471861931,-0.5055396323337684,-0.35897266255208565,undefined,1495451893387
903d185fccf839df,-0.13729664196470653,-0.4037564457272475,1.1990563882056098,1.262910882810152,-0.4290896137824952,-1.785549272787658,1.7826421695162464,-1.3995666970216982,-0.4589609590028471,1.2673952307886054,-0.150878101410867,-0.10226697745683366,-0.1863928810160428,-0.5975017046775069,-0.868653449651752,0.10825589466529109,-0.9251508951860922,-0.5837541722072609,-0.8262065323450785,0.3596464623332273,-0.579537743290865,-0.4309385752213849,-0.4526464392267061,-0.35394562042373323,undefined,1495451894834
903d185fccf839df,-0.12759468689883519,-0.30924691411773475,1.2641332368444598,1.2615025752814528,-0.2562899121144575,-1.7826796505569011,1.8690996657036831,-0.7591252717320696,-0.597806204280116,1.2933406688517612,-0.1259698330832965,-0.2248933428865831,-0.4475058489304813,-0.5650974810278853,-0.796021751829758,0.029452098609825828,-0.9423422684880975,-0.5764396217615733,-0.8074970606909009,0.5184968248974658,-0.5377960021790312,-0.4353393121027479,-0.40866147989941015,-0.32164712318847455,undefined,1495451896382
903d185fccf839df,0.026252927224752247,-0.33918476670590253,0.8819643795340959,0.9478997474427672,-0.3296680738606511,-1.794239665281229,1.9373983527380563,-0.3691102832123298,-0.5149362919075438,0.870620454523562,-0.05716331784428897,-0.05297133448075011,-0.7738970588235294,-0.5623199802138754,-0.8633902549743652,0.05976143357243624,-0.8836287840215789,-0.5417414227441094,-0.8235547412858515,0.6309054770861515,-0.5088852449399405,-0.4313765333673999,-0.37302450069062165,-0.2915978645604996,undefined,1495451897856
903d185fccf839df,-0.21075548479178033,-0.456587854014157,1.0363629959237377,1.2285306395672106,-0.6519395294128912,-1.7767167978547502,1.882924550892244,-0.8174933020207883,-0.5232201019121088,0.8672538353482259,0.011672441684374917,-0.07430026268069927,-0.847879066399287,-0.5743558602438333,-0.8570744817318181,0.04157591173609029,-0.8635779812868204,-0.5368967212683011,-0.8127726560735644,0.6621797172835698,-0.503259389712524,-0.41811850997901173,-0.2783434597767095,-0.3068823346669042,undefined,1495451899333
903d185fccf839df,0.022094956340924458,-0.49533087311816093,0.870480184926602,0.958651764743936,-0.6053761811263189,-1.7549733494167266,1.8427200893519802,-1.0357887882155226,-0.4482699814160646,1.023884710046642,0.002031032138580196,0.13074073098615974,-0.8304715352049912,-0.6623100613213282,-0.8202323104081888,-0.021063063955090014,-0.9350859617917745,-0.6187563503674764,-0.8285784510059407,0.44336780762646144,-0.579142877660413,-0.48136270299707457,-0.39916838494823087,-0.4019511728905922,undefined,1495451900842
903d185fccf839df,0.23692719009141475,-0.4160837606877966,0.6293118440322782,0.7756814251191784,-0.47435697276043925,-1.7710031737747327,1.8977803488929252,-0.6534502019710166,-0.40638148061889684,1.150261030420579,0.05481681276309107,0.07996840869546958,-0.4649133801247772,-0.6539775588792986,-0.8276007505627017,-0.02510415598727511,-0.9293951381866373,-0.6260962335567902,-0.865479632046667,0.35538109092525955,-0.6132272842927164,-0.4633180260409624,-0.4498532728815044,-0.3792112644860225,undefined,1495451902333
903d185fccf839df,0.2078208763234742,-0.42254089643913956,0.3345508491065986,0.42304807753503976,-0.2370865174860908,-1.7985930122989382,1.9481253503968785,-0.2900129798805055,-0.38768419882709765,1.1279591137258884,0.02449836518596004,0.1024856724741463,-0.6520443404634582,-0.6456450693880437,-0.7907585866013063,-0.043289649558899516,-0.8820865553093128,-0.5969900250965067,-0.8427050130590429,0.4069196900956486,-0.5844664183429087,-0.443493196478826,-0.425497955151699,-0.31401625398430355,undefined,1495451903836
903d185fccf839df,-0.040275711089603865,-0.5017880380974962,0.4462023599184774,0.5982833844363994,-0.2486167877692305,-1.817243229801669,1.9815133624068935,-0.10194383068394361,-0.45066979782051564,1.1372503040736304,0.054023817846823675,0.08482517158638317,-0.7477857620320856,-0.6706425637633577,-0.7876007036611496,-0.04531040756040358,-0.9541339134059725,-0.6394080810891548,-0.8163130429154645,0.27430828122395695,-0.6154927191967872,-0.4317755808168808,-0.5123429650851851,-0.29909318603687485,undefined,1495451905333
903d185fccf839df,-0.1469987350522168,-0.5510972979396928,0.754362217228607,0.8226091510994556,-0.3225092322688007,-1.8421707475279276,1.970184157562767,-0.2597682923718144,-0.4192177919186822,1.2988008154381332,0.07737280660461285,0.07591325189991308,-0.7042669340463459,-0.6650875880368872,-0.7844427912720577,-0.08168125338004471,-0.9685243949587947,-0.612803383842248,-0.8273680028955533,0.3363178211169267,-0.599215941244738,-0.4156544649726758,-0.5209614596067625,-0.29408368645348776,undefined,1495451906902
903d185fccf839df,-0.2440198039489584,-0.4965048738864114,0.6350538142675506,0.786779528385459,-0.4220336352846247,-1.8302520317843096,1.903379194181897,-0.7099629313338106,-0.3487581238335174,1.3532897857105792,0.053745596423354004,0.049895902346102784,-0.9218610739750446,-0.6604584113796876,-0.7886533190374788,-0.10592851219119367,-0.9621864121486869,-0.6064134436108561,-0.8300337886898388,0.3622026087064106,-0.5891944052925978,-0.4506038057296227,-0.5314910031989561,-0.28085699318622864,undefined,1495451908337
903d185fccf839df,-0.2661960857312299,-0.45658781017216854,0.5948595143467457,0.8521080165948094,-0.5450711356848128,-1.8585406426202224,1.8665619111226344,-1.0015922497710468,-0.36091891697592665,1.1216953602851794,0.06533001988912855,-0.03523539308979143,-0.847879066399287,-0.6595325734580929,-0.8391796816714667,-0.08370187005794111,-0.9658901720827991,-0.6302063125860311,-0.8488901940208351,0.38166624406014993,-0.5999711920279782,-0.45691216119223366,-0.5312261584870813,-0.34122391248399836,undefined,1495451909833
903d185fccf839df,-0.08878617652715519,-0.5751649713186543,1.0127567229656969,1.0778760443786726,-0.5650665353688046,-1.9025399710061295,1.8905273320847975,-0.9007625867926752,-0.37614348489347776,1.1254015008095872,0.03184148417811786,-0.20795579217037646,-0.5650066844919787,-0.5206574939052768,-0.8254954756366405,0.09411166271418099,-0.8777377550623631,-0.5134141658578452,-0.8522206761877623,0.499787715564951,-0.5239251242035716,-0.41383431563978623,-0.3928509026890605,-0.32791262270432503,undefined,1495451911350
903d185fccf839df,0.004076817969529414,-0.56166359713387,1.20160817731477,1.3370957577067732,-0.4912049484084664,-1.9252500527242653,1.9859524785099416,-0.2694549995268373,-0.37585377331771236,1.4477077376500966,0.04536921482370095,-0.18306998021747783,0.5099083667557933,-0.4539974484674914,-0.8181270502065952,0.1708948138270283,-0.852005770651979,-0.47598013708743436,-0.8616313870187561,0.6153838436051139,-0.48532335790776526,-0.45451694516110025,-0.3645015372981248,-0.3809496141936868,undefined,1495451912834
903d185fccf839df,0.026253065246391184,-0.5880793012773249,1.1671558476292374,1.3179929622470283,-0.7289074058891939,-1.9106946372056823,2.03185311058905,0.0026301840732680724,-0.3557041987736097,0.9419358323506042,0.023921823904473966,-0.16661781273439383,-0.4126907865418895,-0.4410357693682624,-0.8665481452767556,0.2800075491390025,-0.8092704878748014,-0.4427131838947278,-0.8704053884698154,0.7205860189900737,-0.4571940660180426,-0.4460445138376239,-0.30426031632990014,-0.4239523126924844,undefined,1495451914334
903d185fccf839df,0.29791187872913705,-0.5581415363731341,1.2449926583616868,1.3398666710629465,-0.5491957064008545,-1.8979839789709634,1.9901969844428316,-0.191727998382278,-0.28638039637354035,0.7940287993773206,0.0018917301761543184,-0.14233701125184098,-0.5824142156862745,-0.4141865861989842,-0.8286533806634986,0.5669338454878203,-0.7949310365077887,-0.4160134924871234,-0.8647239779339636,0.7620078372001975,-0.4337581657182165,-0.4291699413209265,-0.2837063358598002,-0.43098737097088696,undefined,1495451915835
903d185fccf839df,0.13159014492160784,-0.6039287500685908,1.2060746342008863,1.333481950526827,-0.6375087008510615,-1.9184766257836425,1.935457559876929,-0.5988221251956521,-0.2571847660509421,0.4814921337880093,-0.013353270800517994,0.05469638536326643,-0.6346368092691622,-0.43270326692623284,-0.8202323251326564,0.49621257267338365,-0.8273026539175916,-0.4159184978779559,-0.8477217274363502,0.78721508750895,-0.42495849684600046,-0.45487510318381147,-0.35424669967552136,-0.5057846235399404,undefined,1495451919008
903d185fccf839df,0.08446558926604304,-0.6156690646450147,1.1295128285436942,1.2783835962355896,-0.4428415970805835,-1.9146194053308112,1.9397388898672019,-0.5154189936079443,-0.2796994346946997,0.6748001526975895,-0.009436641276961361,-0.014128198336447576,-0.7129706996434938,-0.4669591146159458,-0.8118112548773467,0.7103970077945899,-0.7997529893792305,-0.4783676548052448,-0.8227361155571706,0.7601754191496074,-0.4475885541181662,-0.4658957152331173,-0.38716668790197184,-0.47382445756654984,undefined,1495451920340
903d185fccf839df,-0.03750361548235289,-0.6004066454658663,1.1907623747242277,1.280456559390422,-0.49255237031535837,-1.8867826676533748,1.9643643956888273,-0.3524402744657542,-0.3471179569277447,0.7899038638932211,-0.05426829961646226,0.08089263967653496,-0.691211285650624,-0.4799207548628512,-0.788653348486414,0.6619023205839628,-0.7784896509324305,-0.4706731284199236,-0.7996816239020311,0.7060036854982704,-0.4504737667705232,-0.46372229916789465,-0.33380936255941646,-0.4804655612319056,undefined,1495451921837
903d185fccf839df,-0.10680438390936971,-0.43369425447342674,0.9221589335918503,0.9794310067572266,-0.650941818804682,-1.8738088065186975,1.9795778375328683,-0.29166907869153985,-0.3986032689710604,0.714430850611267,0.040281354329903804,-0.018911397450715,-0.9523242535650625,-0.519731630082133,-0.7697059183252658,0.4032646294609729,-0.8251791704039553,-0.49497263351493315,-0.7882348405676228,0.5281362434809832,-0.49166071842866405,-0.4500597958091013,-0.3566545462178437,-0.4568232167272653,undefined,1495451923349
903d185fccf839df,-0.07492607805040741,-0.4401514340667582,1.2858258585733422,1.3825844169510242,-0.5973121978269874,-1.8476537796245085,1.930739711318541,-0.5519170279422297,-0.3277345688604301,0.7104502286546587,-0.012135896100390363,0.026285419192317045,-0.843527183600713,-0.5132507646309693,-0.7960217444675242,0.6376550617728138,-0.7660177842976379,-0.4789186207612246,-0.7754796542966209,0.6683082933747404,-0.456482159110498,-0.450654735540358,-0.22884801178270034,-0.49904542073109837,undefined,1495451924842
903d185fccf839df,-0.07215401694856617,-0.3462289174553669,1.3547307720813568,1.4941014816910445,-0.5331500173764152,-1.8177277140569708,1.8767524136858065,-0.8151554068720557,-0.41597755295578775,1.0509522121518304,-0.07556617310767864,-0.0059533500403411875,-0.6868594028520499,-0.5076957630029496,-0.7507585617864555,0.506315627798144,-0.7819970218068327,-0.4580895683308092,-0.7556436959811913,0.5114905281807127,-0.4649929492479585,-0.49153172461088984,-0.27638196425249734,-0.45143264345806394,undefined,1495451926346
903d185fccf839df,0.024866913926536494,-0.4677411682064557,1.3177266532866638,1.444272931110746,-0.40764394176093016,-1.83155174752021,1.8162116426791015,-1.1987514560349948,-0.4180130634781441,1.1145130688536462,-0.1540929443904753,-0.015184392003695741,-0.7738970588235294,-0.446590745094733,-0.7991796494943821,0.5871399274726196,-0.7340069696024257,-0.4080466455095914,-0.787591134107661,0.581568854335662,-0.4341759310452448,-0.5352052851783258,-0.3323784487237147,-0.4974789628093799,undefined,1495451927854
903d185fccf839df,0.09139565575712182,-0.5698818363355619,1.4517089237074274,1.5052201377581511,-0.3947353991535212,-1.864524458770707,1.8359272939113602,-1.096473022964306,-0.4836220645570414,1.5993500212472418,-0.06688860037100697,0.09441493497752086,-0.7477857620320856,-0.49565994772686456,-0.796021751829758,0.6235108298217037,-0.7250120778004184,-0.4278307605833107,-0.7600516871760533,0.653156229692513,-0.41885022281153134,-0.5166993372403466,-0.34579950564889117,-0.42295043108573427,undefined,1495451929344
903d185fccf839df,0.056745288796318266,-0.5193984734271416,1.3853557993085732,1.4168653650306835,-0.41460736493961003,-1.8652162424886078,1.8886233522820743,-0.763592397122188,-0.34006639223507923,1.0383102649234435,0.0338310216888922,0.06036508249378297,-0.6389886920677362,-0.41696403520989583,-0.8118112401528791,0.6336138849464641,-0.7238285584365451,-0.40715369983650934,-0.7355698466954267,0.8495480051357324,-0.3615397617017236,-0.5597236527617961,-0.4148988739496178,-0.45747057768599325,undefined,1495451930868
903d185fccf839df,-0.03611767119495661,-0.518224458044895,1.6016413373479024,1.505068187770653,-0.47993182907750886,-1.8681464257499465,1.9165702993545233,-0.5920120814220998,-0.3604495821703023,0.7098116703609246,0.09674212889785665,0.03105541996283874,-0.7826008244206774,-0.3114189783759725,-0.8086533424882549,0.6881703091318943,-0.7053626726616734,-0.34810533337607324,-0.7127322570950233,0.9690553428560504,-0.30516113442903536,-0.5600598536573224,-0.3168351257958458,-0.4268986815195061,undefined,1495451932323
903d185fccf839df,-0.06383790265386192,-0.366187427391494,1.4593650534457567,1.3655639834775597,-0.642764695158532,-1.8385138443931721,1.894506237819316,-0.7578903207987153,-0.3140195796125721,0.4088333694494716,0.11637541340248993,0.03636261320079346,-0.852230949197861,-0.37993072555849666,-0.8212849478712194,0.8073860995686288,-0.7126400115833247,-0.4158488327014883,-0.6998581245375188,0.9086164420157731,-0.33557513403791944,-0.5289646352833824,-0.4813986979867082,-0.4066183281539818,undefined,1495451933839
903d185fccf839df,-0.045819833293286344,-0.5276167272428296,1.5129577074771128,1.6269283091573674,-0.6619269522081018,-1.8611167817306509,1.8922183004257698,-0.8293475214549104,-0.33769435090098276,0.5159793935954973,0.07277594510530173,-0.11345464115820587,-0.6563962232620321,-0.3845598892649215,-0.8128639070648449,0.7831388124927584,-0.7268505308873039,-0.44028766541985676,-0.6868440558175344,0.9979890228458336,-0.3366765796468511,-0.48122981714389823,-0.3954182790309862,-0.41647462808784663,undefined,1495451935349
903d185fccf839df,0.09000971146972553,-0.485351588922105,1.2003321556917153,1.3301399544747767,-0.47580726299467413,-1.8827297917395742,1.9627786247240095,-0.33631417953815784,-0.3156009503131007,1.0389034507183148,0.09772206550193795,0.034280267217117535,-0.5519510360962567,-0.3632656818221139,-0.8212849625956871,0.8599219353408841,-0.7722192361341846,-0.45827322577370333,-0.7026008729086133,0.9784945913685535,-0.3479821249537407,-0.49284347123673705,-0.40610302601474696,-0.43003734080707623,undefined,1495451936844
903d185fccf839df,-0.07215398244315643,-0.46421901976174273,1.2494591152478032,1.3347357318024526,-0.5184723306612913,-1.898209915219039,1.9476072670680398,-0.4832729028866205,-0.26916653967487125,1.121032151160294,0.06162971173516752,-0.03460653272482763,-0.517135973707665,-0.3632657336252121,-0.8107586174143161,0.9973232758786862,-0.7203174161650806,-0.44228887598179595,-0.7342194610462204,1.0242587686501534,-0.34790975270024255,-0.47220083901914706,-0.2923257545460411,-0.3367474299089229,undefined,1495451938339
903d185fccf839df,0.18425875377003562,-0.5557934617666523,1.0893182744859398,1.3081365162872327,-0.3488200477218359,-1.9066324436658906,1.9652480065100468,-0.31910814354994843,-0.22455812033707107,0.9651889679805622,0.010368784080526872,-0.05287179463330272,-0.45620961452762926,-0.3790048746861273,-0.7391795644175865,0.9084166508162328,-0.7502843295294962,-0.46164235282328564,-0.7359406755920898,1.080278311931749,-0.3431731621138505,-0.4721823414440316,-0.37976668117742435,-0.3098906328794189,undefined,1495451939834
903d185fccf839df,0.1828725679447712,-0.6279963796055639,0.96937224191878,1.1451513935940192,-0.26512533294634505,-1.9211738838062475,1.9876092583583647,-0.19071043056337655,-0.15689310299986411,0.801772552313685,0.00009464935037580688,0.08454203630655793,-0.28213430258467026,-0.3669690853115913,-0.7265479958457909,0.7851595704942624,-0.7675733609802481,-0.4819647692390631,-0.7687697114118899,1.0813254030988406,-0.3611259841979282,-0.4683122457196921,-0.3588289577649337,-0.3469700715095378,undefined,1495451941353
903d185fccf839df,0.41572307808829545,-0.6737835933010206,1.1531196097756338,1.2692984382701311,-0.09134848180150222,-1.930819263758947,2.0262226940407313,0.12561554695902388,-0.21917278047630923,0.7072370442045928,-0.04847730330354174,0.022106095925157086,-0.12111463903743315,-0.34382316317327044,-0.7233900908189328,0.8053656242143401,-0.7587283827441959,-0.4730859832331794,-0.7901939462367538,1.123748117166642,-0.3524651851210731,-0.4983350210004181,-0.39138486131862127,-0.35852834647785703,undefined,1495451942894
903d185fccf839df,0.080307652887625,-0.6368016191913809,1.02934525820236,1.0409429486986546,-0.34866575685685003,-1.9246048537155194,2.0620722146629813,0.25949058799577845,-0.27160215072731825,0.5277739154134071,0.04939347958446502,0.13521484657703894,0.13999832887700536,-0.4178899378853633,-0.6760216111251016,0.6800878989497519,-0.8231852385396875,-0.4967711923319387,-0.7710786583894873,0.9830987160967785,-0.3866870640086306,-0.49517486309575104,-0.4510012470437749,-0.3786062420939746,undefined,1495451944344
903d185fccf839df,-0.14006870306654776,-0.680240772894352,1.1780016502197799,1.2840739056189563,-0.615199023228429,-1.9396913361798733,2.070640117490105,0.22284179635457216,-0.29463052890777564,0.1356043261883038,0.07931065497458163,0.16338858639943246,-0.852230949197861,-0.46510742582198167,-0.7160216653888876,0.5750163404641273,-0.8308316302550613,-0.5424697136920692,-0.8039006986034718,0.7111775729687839,-0.469037719501462,-0.49363794927702037,-0.5677465720090963,-0.42886124295327643,undefined,1495451945833
903d185fccf839df,-0.2966884473027959,-0.705482447041564,1.2481830936247482,1.3492049477147796,-0.7710890427822182,-1.947403447645174,1.9354654660476687,-0.7290608164192232,-0.2052461270763952,0.06425016446298774,0.15123482745806854,-0.07859080015377157,-0.8609347147950089,-0.5456549882805909,-0.7897059565005095,0.3870997808319664,-0.8432783565164751,-0.5931965912357889,-0.8303696346515407,0.5742391948282598,-0.5297320141544664,-0.5110120412133686,-0.5649070484946811,-0.45380286062985775,undefined,1495451947339
903d185fccf839df,-0.2800562532187972,-0.740116346544722,1.2839119532072347,1.4000232305965565,-0.7349451006563281,-1.9347813001274397,1.9503396491033556,-0.6221508405555931,-0.07406414468426739,0.26516088991586567,0.3463752147948153,-0.12204963703702056,-0.007965686274509793,-0.6058341423656637,-0.7749691277271202,0.2598014954189248,-0.8305551758045313,-0.576800598615488,-0.8139411239732174,0.4422437205703901,-0.548679690813465,-0.49870314189708914,-0.5182651709569087,-0.4403749204526923,undefined,1495451948838
903d185fccf839df,-0.2135275803990313,-0.7407033761568396,1.1065446934656555,1.2985820032526718,-0.6769029102017117,-1.9211319587547562,1.9190423334657432,-0.7899572195085148,0.06096091783357871,0.49640726481896247,0.4465889840179583,-0.16755791032908274,-0.06454016265597147,-0.6447192055648997,-0.8128638849781435,0.09613225112735584,-0.9096456463843285,-0.5989279020802458,-0.8360090659798562,0.3591229145687872,-0.5850834545354845,-0.5000245055492891,-0.46864248553061827,-0.48706828504741123,undefined,1495451950341
903d185fccf839df,-0.24679189955620937,-0.7084175366461671,0.9189690066026878,1.136462505959366,-0.7520090748278727,-1.9255505262881072,1.9733267763681501,-0.46820435068947747,0.05003478949343232,0.37827440156566267,0.4576939773040164,-0.10873952084129192,-0.9305648395721926,-0.6530516950561548,-0.8254954829988743,0.288090015850588,-0.7250043884500378,-0.5969393577655447,-0.8427959740044448,0.5072405628378583,-0.5582246597477304,-0.4521301262450202,-0.4270171231703703,-0.46506801574822837,undefined,1495451951829
903d185fccf839df,-0.03057360074938873,-0.6321054553644212,0.9221589335918503,0.9393983377885747,-0.771819326831835,-1.918842316684693,2.0138468289893567,-0.17336102485501734,-0.00010249279124434457,0.23218991815850665,0.35335183803237324,-0.04417766989962244,-0.8304715352049912,-0.5725041714498691,-0.8212849478712194,0.3567906154576852,-0.7530626295965606,-0.5727411798634967,-0.8228410683197929,0.6647204627746289,-0.5043007440350882,-0.4677978644902207,-0.43610482322256144,-0.5237151587192654,undefined,1495451953442
903d185fccf839df,-0.15670093165595625,-0.5446401914163421,0.7875387794280341,0.8335824734474121,-0.650859536333183,-1.9128934398826545,2.0451178486873762,0.08825464228089759,-0.23427903305033942,0.16909570610682698,0.25709381653173546,0.006128909699345228,-0.9044535427807487,-0.5845400126275033,-0.7391796012287554,0.45580043696850664,-0.7429352994744765,-0.5472954124113492,-0.7896901786001935,0.7250515731909382,-0.47216464007780523,-0.44674622580156836,-0.4442186328003283,-0.5329697103411375,undefined,1495451954850
903d185fccf839df,-0.2731261867277184,-0.6039287646825869,0.9011049580168687,1.0320842419267087,-0.6577612375516061,-1.9299504581644698,1.9407855621209507,-0.6051321908067172,-0.2629990951148759,0.700774747677796,0.18893546056931634,0.006611251726960659,-0.8174158868092692,-0.4104832474633795,-0.7160216727511213,0.5527896418014318,-0.6447178694671217,-0.49679018827836796,-0.8081197776541432,0.8386921012711107,-0.42812286530956484,-0.44759028281735647,-0.4544215871054573,-0.44111359332030176,undefined,1495451956333
903d185fccf839df,-0.17333316024536477,-0.4953308438901686,0.9310915932271333,0.956000167400274,-0.5186060458490847,-1.9254177596911966,2.0151932915053092,-0.08021623028624535,-0.21195343561205907,1.098191476644038,0.17473204326698286,0.07708128712774638,-0.7347301136363636,-0.41326074827738934,-0.7286532634096182,0.678067310536577,-0.6549125203983006,-0.49241412513298666,-0.7852332087565819,0.7502126348810444,-0.4339926779545525,-0.440727070750867,-0.4685012254805704,-0.4203156726168499,undefined,1495451957846
903d185fccf839df,0.1260460917287448,-0.5217465772616158,1.6150396914584533,1.7031249090432683,-0.402192518453532,-1.9319699108192532,1.948262092844335,-0.4919435344285531,-0.1478235262594759,1.3508272918071051,0.2858879076211437,-0.027751504438973174,-0.7913045900178254,-0.37252404808728734,-0.7170743028519181,0.6315932117391246,-0.7059402807425147,-0.46542312008795533,-0.7850303012289241,0.8535670027897151,-0.4027412429802222,-0.4206677772977417,-0.4555370857701601,-0.514901799139388,undefined,1495451959329
903d185fccf839df,0.3866169368474036,-0.5962975404790166,1.548686567059599,1.6696096850161093,-0.30588754149750086,-1.9407581312285962,1.9676726821609631,-0.36095119902881745,-0.04343822143793667,1.3249293667765811,0.2239810160741361,0.027839513202145352,-0.8870460115864528,-0.4067799475800985,-0.730758523611212,0.6780672540071339,-0.6024440745565296,-0.44047132182739435,-0.7823645176184295,0.9154687590841077,-0.3811223561557469,-0.3915128330276787,-0.3714246954128676,-0.3736595696122061,undefined,1495451960842
903d185fccf839df,0.3699847082579951,-0.6438457845548413,1.3528171208521986,1.5162523733406352,-0.2685813167385584,-1.935808497387335,1.891547692686127,-0.8513615736561718,-0.11620841939827664,0.9864186876633328,0.22178090885225737,-0.07581824721388478,-0.7869527072192514,-0.3623398439005191,-0.722337460718136,0.7427268181114891,-0.5422211696371501,-0.4051271648082596,-0.7603805376603978,1.0557024004575954,-0.33325210497134755,-0.37829460965015926,-0.3414159994992818,-0.3733235366050832,undefined,1495451962332
903d185fccf839df,0.38938889443301566,-0.6497159637640475,1.155033261004792,1.4557609688875979,-0.21052884551418688,-1.9209479503420188,1.913364568408578,-0.6686314742657473,-0.11087993257216033,1.1682882931608207,0.2251082473910151,-0.06673184001537397,-0.5258397393048129,-0.40492825878613437,-0.7444427517327394,1.0276325543118536,-0.5239831669529293,-0.38852851945196193,-0.7462959563318634,1.2252700810524493,-0.29375555586394375,-0.34668029883038665,-0.19034134744898054,-0.4131894852646936,undefined,1495451963880
903d185fccf839df,0.12188798282327809,-0.5763390305428895,1.2060741259269874,1.4419841542404863,-0.3860028344217917,-1.902481740815308,1.9509024322821849,-0.4413962717498377,-0.21397807286231277,0.6605172146779761,0.2502286484688721,-0.05235424738293713,-0.5258397393048129,-0.3206773316903714,-0.7476006346728962,1.1266421779696243,-0.5419318192461943,-0.3682884304956373,-0.743686146284706,1.3210176127911877,-0.26155137022899905,-0.36253881881850736,-0.27892179168771497,-0.44611576001001924,undefined,1495451965370
903d185fccf839df,0.2882097166308073,-0.5722299109420436,1.188847961084221,1.2975119366536607,-0.4603787136999978,-1.9081301462678975,1.9278232508971829,-0.6067524488307882,-0.2911900643687819,0.2905441271031105,0.19460877754851508,-0.0946665058879665,-0.7651932932263815,-0.449368297711841,-0.7339164212758361,1.163013165112873,-0.5090088159453167,-0.39237894735856976,-0.7457012265570743,1.230028192079474,-0.29241257125558434,-0.4385631330670148,-0.15197058819965215,-0.46943294190568857,undefined,1495451966828
903d185fccf839df,0.040113094712319504,-0.48006845393901254,0.9483175039329502,0.9921388399849917,-0.6414686971796454,-1.8344143830027904,1.9251355823296405,-0.5518372202849812,-0.47463745303655547,0.03903754218467175,0.12723799647024475,-0.027698038889275915,-0.6868594028520499,-0.4530716234966711,-0.7528637925391141,1.017529386128207,-0.6706317333103962,-0.42018690267504133,-0.758666316297988,1.021317657236743,-0.3465612706828863,-0.40215515620158737,-0.23547809496352695,-0.49381600051100577,undefined,1495451968341
903d185fccf839df,-0.3784633009083448,-0.49767891849665036,0.7243758361552917,0.7729249983254248,-0.6878880447034175,-1.8699725484468699,1.8739753375618704,-0.9448657914080868,-0.47037652100876237,-0.1180594030497352,0.1282941952120536,-0.04290438932456502,-0.865286597593583,-0.4697366283807302,-0.8149691451797372,0.8073861843627934,-0.7128489226442153,-0.46817161622655695,-0.7944270171596988,0.9569829522967812,-0.38591782705467825,-0.4413954135699604,-0.3073314151631907,-0.5248168229540863,undefined,1495451969852
903d185fccf839df,-0.42558778755309007,-0.5381829972090145,0.7639325064699933,0.7940586992100881,-0.6111978875285814,-1.8507889347885966,1.8669695306594996,-0.9400492918171379,-0.4887790919240004,0.04376074813084377,0.10798454739784834,-0.024174644900564528,-0.9653799019607844,-0.5363966090646429,-0.8233902154350469,0.8134480626612042,-0.6824193461448458,-0.46846926349420787,-0.8104147304105151,0.9169777903811378,-0.40249068278743066,-0.4402155685749097,-0.4627238050872669,-0.49861278181427465,undefined,1495451971338
903d185fccf839df,-0.07492604354499767,-0.744812451915697,1.1728975637275603,1.148437492312768,-0.5921590573870938,-1.9401571855256803,1.8712114135978177,-1.0766434945085206,-0.3488784293442355,-0.017564568950236788,0.1667884374460452,0.05469566507662177,-0.9871393159536542,-0.5567649915366303,-0.8223375706097825,0.5527895852719886,-0.7128757375483497,-0.5345092002284912,-0.8161311256491589,0.7503666142871412,-0.4671301716328763,-0.36547756176530694,-0.5512472815164021,-0.451031805240555,undefined,1495451972833
903d185fccf839df,0.09416764784814358,-0.7095915666424099,1.1888477069472718,1.2389994241871993,-0.3770234249962737,-1.9317393148899566,1.8929914631678424,-0.8545359108891066,-0.3096183172244877,0.1792093202852543,0.20707557636462512,0.009671701929127184,-0.9827874331550802,-0.5188058051113127,-0.8433902609725243,0.758891695005217,-0.6561513274386718,-0.4331631034561275,-0.8220364347447706,1.1018515262880932,-0.3511030493394021,-0.364137280850197,-0.30293235764541526,-0.4819227206901982,undefined,1495451974331
903d185fccf839df,0.12050190051424288,-0.6749576086832672,1.0267932149562502,1.108192025451293,-0.20954141953273728,-1.9436324101578484,1.9594466574504392,-0.3903607745517877,-0.2902728609063475,0.11940538232369986,0.19443875495423416,0.042783768558927474,-0.8000083556149733,-0.542877487466581,-0.8497060489395389,0.7568709935331561,-0.572651766872915,-0.4254812421774912,-0.8441883373013368,1.1589181645196895,-0.3443798374036622,-0.3632174632140506,-0.2678080510122845,-0.4451172005562712,undefined,1495451975898
903d185fccf839df,0.3727566658436071,-0.6045157358387199,1.02934525820236,1.1061514771133392,-0.11570501028204704,-1.939372231392812,1.944435729852252,-0.42468602982901726,-0.25153798817305545,0.6146152453544348,0.05403746447408207,0.02102963985996768,-0.9523242535650625,-0.5197316689344565,-0.845495521174118,0.8114272763949786,-0.50633179335005,-0.4097692095838183,-0.8384369586873035,1.2101487980524936,-0.3275202787158437,-0.3802506858807428,-0.2668924152216157,-0.4377424026273157,undefined,1495451977331
903d185fccf839df,-0.14422677746660476,-0.592775421262296,1.0842144421306696,1.1608606010116007,-0.3418360528369979,-1.927101798770914,1.9487012684514817,-0.4748873483282902,-0.2635655466421057,0.45054292369324,0.007589492206677446,0.05734566008276738,-0.9697317847593583,-0.4114090724341998,-0.8791797432974864,0.8174891546933892,-0.4852519735988853,-0.39584306652581996,-0.8389197387968378,1.1750557420112409,-0.32253184066958196,-0.41733361098329286,-0.1740364643871801,-0.4812088925706227,undefined,1495451978857
903d185fccf839df,-0.09848833862548494,-0.6004066746938587,1.600365569861797,1.6222647125079699,-0.4674141264012496,-1.942579592938224,1.9424002551624986,-0.561864421714544,-0.18336940444307867,0.9432790605351906,0.1045711877123675,0.023063123688034353,-0.8043602384135473,-0.3262323203676165,-0.89917978147273,1.0417767297335205,-0.4715478708925709,-0.3053832965907468,-0.8335112032734702,1.2957333587449291,-0.24980634810339644,-0.4608624843360798,-0.1194887717350305,-0.49268376146542553,undefined,1495451980340
903d185fccf839df,0.023480935133730476,-0.7113525677947855,1.5901571427404082,1.5486015150203545,-0.4963683610778908,-1.9613695654826262,1.9917906411517134,-0.2614432025913589,-0.21635804756005036,0.41509941529279215,0.21458355606185833,-0.03948828447129836,-0.7390819964349377,-0.29660570113820117,-0.8886534657402942,0.8417364982987028,-0.5261009733793889,-0.3814482832493918,-0.8451259095795538,1.0777837674311992,-0.3362326520779098,-0.4782731959088372,-0.26292249749604846,-0.46896249171156357,undefined,1495451981849
903d185fccf839df,0.09000967696431579,-0.5452271918004674,1.618867756327618,1.751773038498301,-0.5838482111592243,-1.9251102993334217,1.9271605325679309,-0.6507446716397792,-0.2141724925125388,0.40159817955627386,0.29649253973423095,-0.06102358924853509,-0.4692652629233512,-0.2762373445677629,-0.9118113794934608,0.7649534037152985,-0.6065712945097996,-0.41365763632626373,-0.8721126095101556,1.0526842984055063,-0.3618508455073229,-0.4771707705444775,-0.278932099082447,-0.5083402433578567,undefined,1495451983340
903d185fccf839df,0.024866982937355963,-0.43252020986318784,1.1027166285964909,1.2107003375157646,-0.6655577887689061,-1.9055772994309548,1.932861951714724,-0.5996335186084779,-0.3878463485024294,-0.009789004551592775,0.19145537661511242,-0.09439836480772011,-0.7477857620320856,-0.3540073544092641,-0.9391798430987497,0.5386452967914355,-0.681036770443087,-0.48164811798020735,-0.8852666138604357,0.8871048130945821,-0.42787931931167467,-0.4655493092627532,-0.28004993922298915,-0.5042296882304084,undefined,1495451984843
903d185fccf839df,-0.07492607805040741,-0.3826238473388929,1.1901242368442255,1.1405396330269337,-0.7006423050340775,-1.8863284673210279,1.9540660727549282,-0.41541054728241444,-0.5564835471227594,0.2410868716634439,0.040802757689245135,-0.06455067691811318,-1.0001949643493762,-0.4632557499787921,-0.8991798035594314,0.2820281940816204,-0.7120164868025303,-0.5175052458401239,-0.9018210682539615,0.9551813382182587,-0.44714616722188505,-0.3783072572177521,-0.33800347739943076,-0.41066020525074515,undefined,1495451986380
903d185fccf839df,-0.3257947265653267,-0.3456419316852378,1.2992239585469438,1.337232888825943,-0.8568717562450883,-1.8511243447104577,1.9298324081731468,-0.5740083047863482,-0.6610910855789314,0.38561878049579296,-0.018315823431712765,-0.028918028453001496,-0.9349167223707665,-0.5882433384123334,-0.9349692785221597,0.2901105477343198,-0.8302493346395788,-0.6651261643664437,-0.9415209726482776,0.7146422194786008,-0.5773339978282981,-0.41986712993818387,-0.5130197046457015,-0.42998174287645596,undefined,1495451987851
903d185fccf839df,-0.5420129736140328,-0.49591788811628235,1.1869340557181136,1.1489793161107533,-0.9169505175000474,-1.8275151760852275,1.8495496947084384,-1.1136294296921407,-0.6276804553876779,0.4125080835442193,0.00043053136890109967,-0.08506249503866148,-0.4649133801247772,-0.5623200125908118,-0.8739165927935023,0.41134709617255844,-0.673075932033685,-0.635627311936482,-0.8970702324330513,0.8718603471217041,-0.512142673011323,-0.38068148104402877,-0.5380165077042668,-0.3626147314622125,undefined,1495451989333
903d185fccf839df,-0.7318970197547541,-0.6420847395604772,0.5757191900009223,0.6943551515228813,-1.1970094752611562,-1.8621486333555024,1.8603450552108145,-1.2009972326538605,-0.4726045184161182,0.15257276922925106,-0.02122519297882104,-0.1282194189002489,-0.3909313725490196,-0.5789849915733218,-0.8854955828001376,0.37093487567351685,-0.7057471725184712,-0.6507060505776657,-0.9094335981329968,0.710068881840707,-0.5538320093084911,-0.3742163265705208,-0.5492134634743283,-0.357158033379627,undefined,1495451990836
903d185fccf839df,-0.7027907232395184,-0.6121469454282941,0.5374382871723261,0.5309223980965257,-1.153994691218534,-1.8807103418183522,1.8989637562614787,-0.995429363008935,-0.3944664436048532,0.11360638722259733,0.010755792224825592,-0.09063032990729653,-0.7869527072192514,-0.576207490759312,-0.8907587259418879,0.41336757152684717,-0.7099041178895932,-0.6570959904879308,-0.9282200353980455,0.6593925981192996,-0.5729134041929387,-0.3968034855677897,-0.5464652855243862,-0.35505501049047483,undefined,1495451992332
903d185fccf839df,-0.5115207155586959,-0.5381830264370069,0.8711183228066041,0.8345311472633222,-1.0141709253615099,-1.8826832066480652,1.8764552469419367,-1.0884359631017053,-0.47889035544660374,0.256674926435166,-0.0007565607494364122,-0.038895789290108146,-0.8391753008021391,-0.5928725280203074,-0.8665481600012233,0.3749761655587527,-0.6615592525539117,-0.6727066965198221,-0.9304800046689209,0.5936720343007796,-0.5957334686851528,-0.4039248170279834,-0.5477927403271586,-0.37856521884691746,undefined,1495451993853
903d185fccf839df,-0.2592660537455609,-0.3855589661714883,0.9521458229390644,1.0095596344593767,-0.8477072069235684,-1.8759097777503684,1.9126755619961466,-0.7893225286054578,-0.6012209212066217,0.4820167909491436,-0.015559353573703494,0.017246534134195177,-0.847879066399287,-0.6150925215816117,-0.8970745286333701,0.10421466130949832,-0.7476864312408017,-0.6731373354828916,-0.943892891920846,0.4784608672621509,-0.6274528560825802,-0.4089215682807584,-0.5197159868702527,-0.40553444014801504,undefined,1495451995335
903d185fccf839df,-0.3216366521652697,-0.43310719563331684,1.1486531528895174,1.2036066527739546,-0.848951776975408,-1.8676153575683194,1.9168385424503807,-0.7607941356798247,-0.6071639045181794,0.5276522482587566,-0.0022443413096480884,-0.03897654956759851,-0.8565828319964349,-0.6789750532546127,-0.957074576898997,0.02339033337030128,-0.8787726205325422,-0.6915725351091295,-0.9606922347990456,0.31803986133728085,-0.6878059936701463,-0.4047013701441627,-0.5041783524247035,-0.36529335103522337,undefined,1495451996835
903d185fccf839df,-0.17749109662378282,-0.46891513974671384,0.9917022391168165,1.0566321674625105,-0.8279278066833338,-1.8777941333154993,1.9713517840154955,-0.4069971111534315,-0.5802579142191691,0.2165164852673959,-0.01832637406464114,-0.09546717158203319,-0.5127840909090909,-0.6456450564372691,-0.9497061588311855,0.17695655080183134,-0.853753053017347,-0.6446834199666928,-0.947552224174509,0.37261195341246295,-0.6515078940046604,-0.3938962622734746,-0.503721000884801,-0.35702277278708516,undefined,1495451998399
903d185fccf839df,-0.32025060436164426,-0.5276166834008411,0.7371360523858406,0.6152418908192664,-0.8471826295148198,-1.8875326836863375,1.903452821869987,-0.8681335172317645,-0.5560186406239374,0.05412940978371219,-0.01068327108981954,-0.04862463482102246,-0.517135973707665,-0.6447192185156743,-0.9360219233474241,-0.025104240781439715,-0.9145531515092948,-0.6483755264129822,-0.9209503491846799,0.27703380325432714,-0.6656544406490197,-0.37732366363347236,-0.539681756543063,-0.3659460046966737,undefined,1495451999841
903d185fccf839df,-0.32302273447430496,-0.5017880527114924,0.7179952197661185,0.7630471584807778,-0.8826374265602526,-1.8980468680542866,1.9664445738948975,-0.47257496188701287,-0.5425451186066595,0.07023036392979454,-0.02067055583383153,-0.04092054318136271,-0.9566761363636364,-0.673420051626593,-0.9728640578598844,0.0072255130060163274,-0.9296883279035332,-0.64850218624991,-0.9360424711387635,0.2509180424160378,-0.6753553803431723,-0.4006220936547526,-0.5434631023193287,-0.36347591025782566,undefined,1495452001339
903d185fccf839df,-0.2869862852044662,-0.5352479368324038,0.8762224092988237,0.9327458907565104,-0.8648945987847941,-1.8954194859266056,1.9154868150898923,-0.8169073333192184,-0.537094353860048,0.5225113331848363,-0.08734695986290902,-0.03334345677865711,-0.8826941287878788,-0.6678650499985733,-0.9939167555848599,0.19716266105135213,-0.7975784743281605,-0.6286230769490531,-0.9171510816371597,0.38791801169973433,-0.6343464572306848,-0.38314651542530226,-0.49950639794801444,-0.3380799132022631,undefined,1495452002836
903d185fccf839df,-0.148384817361252,-0.4700891843569528,1.188209823204219,1.2201537101124702,-0.7649793351484323,-1.8798089250953371,1.9197655048014837,-0.7438913356345352,-0.5916226656757534,0.6605739144093903,-0.08955797279788459,0.036173459646201986,-0.8783422459893049,-0.6474967193296841,-0.9402324511128451,0.16079173043754638,-0.7623041743639072,-0.6421565774602964,-0.8858893309031997,0.3930302944032182,-0.627479005183642,-0.391481191458058,-0.4694859415803831,-0.3101271964055415,undefined,1495452004342
903d185fccf839df,-0.17056109914352352,-0.34798990399374635,1.039553431186799,0.9824502882019815,-0.7360662450124011,-1.8374680145324043,1.9479070531401554,-0.4996675680271016,-0.6272166745697986,0.5189760438596095,-0.05076921249273409,0.05177188675103484,-0.8000083556149733,-0.6854559057550018,-0.8886534436535929,0.031472800081886826,-0.7874254101550276,-0.6529985776782447,-0.8991272966659127,0.34934490354126946,-0.6487604342750571,-0.3904035056445524,-0.43190038107204143,-0.28398554608730825,undefined,1495452005848
903d185fccf839df,-0.27035419463669663,-0.3110079737260951,1.0803861231245555,1.2817723030505734,-0.7915472974285754,-1.8499620545613702,1.894090707921624,-0.8794045257858887,-0.49918705839285216,0.5075982899093562,0.053621198246332574,-0.0058641969529647925,-0.49537655971479505,-0.6326833384857165,-0.8812850108613138,0.12240015488112273,-0.7191465406371684,-0.6189716712054943,-0.9043049368981657,0.4796773416253227,-0.6103900893178706,-0.40578932865355416,-0.36793849581306076,-0.22981792647633315,undefined,1495452007339
903d185fccf839df,-0.22600163107215362,-0.5135283380599239,1.1148387069470376,1.0680381839373325,-0.8132089802148466,-1.899255745386959,1.9997510604262572,-0.24984663088737594,-0.4657628006196956,0.782545260406693,0.03170573747005288,-0.05957712881823558,-0.4866727941176471,-0.6178700094448469,-0.8623376469602697,0.2598014954189248,-0.659813940890304,-0.5808853474424326,-0.8907940950157803,0.4919345018715872,-0.5845991761069808,-0.38174964787030463,-0.3381298909231082,-0.24901423130257572,undefined,1495452008877
903d185fccf839df,-0.16224505385963875,-0.4783073943306522,1.5135955912201655,1.4601598937408955,-0.8831002931056348,-1.8930599699988782,1.895850048533847,-0.930949326411579,-0.45470979976545434,0.8128306486704407,-0.005144840896707514,-0.2575744867030126,-0.24296735739750447,-0.524360819690107,-0.846548143912681,-0.03722779952521035,-0.7273488574513887,-0.5123438978393093,-0.9021289288562114,0.4375625931412566,-0.5643468229895016,-0.4078127875726002,-0.3921552141585656,-0.28451345326811245,undefined,1495452010383
903d185fccf839df,-0.1594729927577975,-0.484764603151976,1.710103683581467,1.7817243775812528,-0.7384525352275404,-1.9221661429689556,1.9933895558962407,-0.28612201801466786,-0.5558949054387323,0.7683646892104101,0.0030534321886245726,-0.16266695009896387,0.24444351604278078,-0.5197316689344565,-0.9181271674604754,0.07794678582045296,-0.7138589168085967,-0.4414909233897615,-0.9501830248561595,0.38506929338221746,-0.5545401074332242,-0.43914199593789105,-0.3642294792030853,-0.3559255951801046,undefined,1495452011833
903d185fccf839df,0.24108526449147175,-0.5557934763806486,1.798787059315307,1.755263720742385,-0.46773298896499316,-1.9318022042591394,1.9340400979050678,-0.6275333461561812,-0.47462020981840836,0.510386419410317,0.07327999037619792,-0.049241170107907045,-0.20815229500891266,-0.5021408131780282,-0.891811378129386,0.40528530266831236,-0.5857265149433707,-0.4082872988753055,-0.927254475490947,0.7236349141770709,-0.4641914417492644,-0.4388646396890799,-0.3161748830522462,-0.35594826795607537,undefined,1495452013332
903d185fccf839df,0.17871452805012394,-0.5557934763806486,1.4019440804082868,1.4444388272701172,-0.39813995946184466,-1.926680206116856,2.0074379775217768,-0.12104527040803743,-0.46950869206124224,0.16845674790656506,0.07739589917784043,0.04690419387053899,-0.4649133801247772,-0.438258255603478,-0.9107587273059625,0.31031677104272676,-0.6191015202715244,-0.3999151479317532,-0.9310397498143228,0.7706463710997542,-0.4499950451755756,-0.4340774261706982,-0.3741655454124052,-0.414028462352056,undefined,1495452014845
903d185fccf839df,-0.162245019354229,-0.41667077568591804,1.42874028035549,1.4135481294586378,-0.6556320977905196,-1.859688958749257,1.8729786226699954,-0.9617161175431109,-0.5850589748458915,0.1049871361339788,-0.0029042164766767404,0.07349774366571514,-0.3125974821746881,-0.40770573369859514,-0.9160218998966481,0.25980138236003864,-0.6551120704456822,-0.4465256134693347,-0.9430112927410695,0.8772344098731455,-0.45517538399847063,-0.42418385836096184,-0.4004769801028176,-0.42522843921469256,undefined,1495452016335
903d185fccf839df,-0.22600163107215362,-0.3820368907967562,1.4261884912463296,1.4036500146445752,-0.7539633600859164,-1.8449099357692431,1.8591432156487755,-1.060549358565134,-0.5650446911656191,-0.2108106202545517,-0.03268794655465302,0.06660063911931488,-0.6041736296791445,-0.40122492005052973,-0.9191797828368047,0.35072876542399606,-0.6358215628442596,-0.4486534821020052,-0.9470554496541204,0.8474076195628344,-0.4616254434211202,-0.4104905132319385,-0.3772285468766874,-0.41775341544888667,undefined,1495452018689
903d185fccf839df,-0.20105339170427008,-0.37792775658191413,1.31900216663582,1.2348983034130905,-0.6899554692299991,-1.8010783120054028,1.8631326322169741,-0.9452955373106853,-0.48461787012890406,-0.36461536943584644,-0.04910539852254522,0.06472326781316061,-0.7913045900178254,-0.44751662186865143,-0.9149692550713836,0.403264685990416,-0.6589433742752492,-0.5261370476571592,-0.9303330719157784,0.8448822751289099,-0.4840927082081827,-0.45433510047920256,-0.36913384743634503,-0.468959848287717,undefined,1495452019442
903d185fccf839df,-0.008397336219822091,-0.5006140081012534,0.9253493688549116,0.8610808935711755,-0.5801762214515682,-1.7246699495435975,1.8315276321929197,-1.0316004706975126,-0.34927032010131714,-0.742934574846506,-0.05322434845896414,-0.07120497724678562,-0.852230949197861,-0.5160283431496264,-0.882337626237643,0.6720054887676093,-0.6301666182763758,-0.584279804666628,-0.9001978080143482,1.2175246540136069,-0.40972594218265573,-0.4359073078432509,-0.3995019030259971,-0.4626199367552814,undefined,1495452020833
903d185fccf839df,0.1579244665985266,-0.5692948213374405,0.7160815685369603,0.5929015755038557,-0.14088438910225687,-1.7221054572032428,1.8631589417743504,-0.696802034503764,-0.5265166428598186,-0.5518827433225965,-0.12438938561845989,-0.03142190811944874,-0.8957497771836007,-0.4956599606776391,-0.8497060415773052,0.5265216532535002,-0.6554034314807651,-0.575249027730117,-0.8658924442431805,1.3827345695930318,-0.35545312835569587,-0.4485467496147656,-0.4709006879056413,-0.5760422557260912,undefined,1495452022344
903d185fccf839df,0.2688056684774257,-0.5968845262491457,0.8015750172816378,0.6924326637669048,-0.20217686078928138,-1.784186669992103,1.9063482475299622,-0.529923654726078,-0.5442141720588487,-0.3952301517803944,-0.10942651079396495,-0.040168314554461744,-0.8217677696078431,-0.45121991527654515,-0.7749690909159512,0.7508091717641885,-0.5651160930922922,-0.5754580141018744,-0.8402841166302879,1.5443720443480646,-0.3088401967938636,-0.41836093023990634,-0.4018939614587068,-0.5768877441841957,undefined,1495452023895
903d185fccf839df,0.44344348207424944,-0.5962975404790166,1.0248793095901425,0.9864286572477682,-0.2973092754567956,-1.88919809018874,1.9436283749513041,-0.40980699621168726,-0.6014599192390653,-0.10900263732049713,-0.15225448229566754,-0.008094626859538635,-0.9523242535650625,-0.3447490334718016,-0.7739164608151544,1.3428474558864991,-0.36005214596735513,-0.5223119509162276,-0.7747869699770104,1.7537601108038938,-0.22291059535596425,-0.4140226929389169,-0.3365830376156115,-0.6747125596677586,undefined,1495452025345
903d185fccf839df,0.42681114996861175,-0.6244742603888432,1.063797842024842,1.0799339107335257,-0.42831819700934604,-1.9327665089519388,1.953981914854004,-0.4493668537661152,-0.5160243640266521,0.22704064896263176,-0.10532074273760868,0.004177561267508749,-0.8957497771836007,-0.31141899132674705,-0.7749690909159512,1.403465277870074,-0.1849133374523346,-0.48375065757881786,-0.7663977937481086,1.8016646776701604,-0.20112835509948132,-0.42195243564210155,-0.3023050308419128,-0.5996650010655952,undefined,1495452026845
903d185fccf839df,0.3935468653168434,-0.7160487462357413,1.4727628992824089,1.7424606498677546,-0.49684150392986565,-1.9685459515658514,1.9087334714150754,-0.8120187918156173,-0.4721421592451643,0.7638145536897636,-0.0994350342692961,0.02189443038018448,-0.9218610739750446,-0.25586894914500097,-0.7718111932513271,0.9710554003896409,-0.2523140329327164,-0.3445715536333248,-0.7741292691795991,1.6402119759677005,-0.19035244771135926,-0.4224167228335912,-0.3492485018205945,-0.5406290026756859,undefined,1495452028329
903d185fccf839df,-0.03195963130030935,-0.6473678745435697,1.491265594022129,1.5569804343011024,-0.7665427622365758,-1.9466860416571097,1.9548418611103773,-0.5846240481116499,-0.3914367516288554,0.6512344560776872,0.005280342106883275,-0.02513374310250066,-0.9262129567736186,-0.3095673154835574,-0.7907586086880076,0.7811181675501404,-0.3463537793853176,-0.34604712935513054,-0.8345397350351114,1.150895582438786,-0.31466403867311554,-0.387096402341004,-0.27017612154878556,-0.4177380730499738,undefined,1495452029838
903d185fccf839df,-0.21907156458107485,-0.5516843421658065,1.2705133449597341,1.2701443316193333,-0.8780294362635335,-1.948519153293499,1.9392076737576325,-0.7175790409976206,-0.42301031476464424,0.2032835718879241,0.054553121654050685,0.015324494738930293,-0.9305648395721926,-0.3086415164142863,-0.7633901229960174,0.33860517841550386,-0.47737167076717785,-0.3643936686225314,-0.8220504276080084,0.9151607850056552,-0.3737837409426277,-0.4183717322214515,-0.23999202990225577,-0.2968568790943524,undefined,1495452031342
903d185fccf839df,-0.13452464987368476,-0.4248890002736136,1.3534552587322008,1.325644487574606,-0.831970085097316,-1.922988362972689,1.9460451638106337,-0.6303447809518665,-0.48875473287214505,0.1281803163179214,0.06787870064480253,-0.03500917126133881,-0.9305648395721926,-0.40585409670772915,-0.8623376395980359,0.09007031629950207,-0.6530796189158824,-0.40957922153371984,-0.9140165093183908,0.5645073844277684,-0.4967038543915866,-0.4089280372551471,-0.25344305842716836,-0.3847435727539053,undefined,1495452032838
903d185fccf839df,-0.29807446060101167,-0.5628376271301129,1.3815277344394084,1.3375061695349115,-0.740807954459946,-1.9120945117963282,1.9814818079078955,-0.3899142854982188,-0.5155450119077707,0.012899754904542678,0.11348963456152532,-0.08625860343243226,-0.6172292780748664,-0.5234350076700612,-0.9149692697958512,0.11633830484743356,-0.841886447290587,-0.47939359282153543,-0.939946690574166,0.4346214934131311,-0.5584131715269356,-0.4202404691759214,-0.3216722151528954,-0.3967892868119543,undefined,1495452034332
903d185fccf839df,-0.22461561777393785,-0.5211595622634944,1.3572828153274668,1.4294855279383454,-0.6588206619399416,-1.886093214106114,1.9772425636769762,-0.37669368561500394,-0.40063943709287886,0.5274672349192264,0.09026898554219721,-0.047153006312633625,-0.2734305369875223,-0.5817624988627189,-0.9149692697958512,0.07592608434839197,-0.8815107997782353,-0.5376313432996186,-0.9323691446271729,0.4850821992483103,-0.5745738051762816,-0.4160629943062165,-0.43575417831546537,-0.4085945444565635,undefined,1495452035902
903d185fccf839df,-0.32718073986354246,-0.5710558663318046,1.2864639964533444,1.3187108196485589,-0.6365006998825993,-1.903758164334351,1.990420517737241,-0.3102193748041096,-0.40802549372298663,0.34061706303052486,0.0904351041778061,-0.08234255594751241,-0.6172292780748664,-0.5697266447343102,-0.8865481908142331,0.03551397690823652,-0.9229645081435408,-0.5627097995976909,-0.930249110956008,0.36329589127884687,-0.603424581349218,-0.41165483265301084,-0.4978165129017099,-0.4727075672900361,undefined,1495452037327
903d185fccf839df,-0.009783349518037844,-0.5299647872353151,1.2641332368444598,1.2627495727479483,-0.5214757468826189,-1.908507481499928,1.965745039888437,-0.42514670428352686,-0.47358589499522463,0.07685603066456824,0.05461504127751953,0.06494311255247198,-0.7390819964349377,-0.5771333610578432,-0.8749692228942991,0.2254510966888508,-0.8829241892930232,-0.5034397793223395,-0.9173399943624713,0.47890741908376216,-0.5528057238360751,-0.37345351223348705,-0.4502236016115891,-0.4520858635221132,undefined,1495452038990
