UUID,iqrAccX,iqrAccY,iqrAccZ,iqrAccXYZ,meanAccX,meanAccY,meanAccZ,meanAccXYZ, covarianceAccXY, covarianceAccXZ, covarianceAccYZ,pressureDerivative, pressureIQR, iqrGyroX, iqrGyroY, iqrGyroZ, iqrGyroMagnitude, meanGyroX, meanGyroY, meanGyroZ, meanGyroMagnitude, covarianceGyroXY, covarianceGyroXZ, covarianceGyroYZ, class, timestamp 
903d185fccf839df,-0.10749744231659218,-0.8143737876490661,-0.8266300985580987,-0.9247528055485912,-0.7096114505242253,-1.735088631849526,1.8425307424550759,-1.21920474920509,-0.2893100893428488,-0.6688539217823515,0.08706222861891076,-0.24023681686003187,-1.0045468471479502,-0.8345151474045688,-1.1454958674140834,-0.6494720578730695,-1.2095676487244367,-0.9470244858574055,-1.1961978921338254,-1.0615068621164494,-1.1031734338264882,-0.47206100308691096,-0.7455180411467551,-0.5278181965504404,undefined,1493662117065
903d185fccf839df,0.538385462012848,-0.29486501743576843,0.9081230769436707,0.22848536839852684,-0.4397026464725704,-1.573795663422655,1.5021673077081923,-2.4562258649096966,0.38678152734264504,-2.5105236666558217,-0.4820875151054937,-0.24430553521808493,-0.504080325311943,0.23667468826563148,0.6418746911489916,-0.3867930715652085,0.948841796049721,-0.19367082959091647,-0.035206010265303275,-0.436216520336757,-0.11768970384404277,0.034137815685758806,-0.5187198991998379,0.6275990898686972,undefined,1493662118046
903d185fccf839df,4.309038262876824,0.2557555769059551,1.8785384107562375,-0.10015018662237855,3.42671742695772,-1.1981698649379044,1.0621456502329556,0.9942445328409015,10.385270670819278,-12.542613833415434,-1.45147601002729,-0.20140246179397975,-0.5650066844919787,0.5273865005689435,2.751350802300947,0.740706003580542,2.2087667421154604,0.11212515993560015,1.8224595498805978,2.556854100288155,1.347028300018996,2.510551807692051,2.441460323028398,18.506822962580678,undefined,1493662118513
903d185fccf839df,10.289691062027124,1.1712064017720136,3.1551994423758774,0.8615764853284511,6.237150546068489,-0.8477111975133224,0.34301129162722055,2.5843095541580197,9.121695256907268,-16.111326996960734,-2.105802377110555,-0.15547397383538028,-0.7434338792335116,0.7643999206321499,1.156612290247627,7.53601043950625,2.669171942482152,0.44148781197534404,1.191272994748184,4.213769613579326,1.4334634907539823,1.362536723555603,3.899494751114847,9.79611941517995,undefined,1493662119568
903d185fccf839df,11.384642671790681,1.019169166522666,3.1003303855160422,1.4745044389975566,7.643271798076088,-0.9289736309996719,0.14162087757973413,3.3725414701706327,6.392131544896306,-16.917805339367106,-1.4697702643282204,-0.12397282489183739,-0.8043602384135473,0.8403183452858833,1.1429280326771643,7.360217551676746,2.4853369429096683,0.4820819293598505,0.889459019147704,4.4513051682159706,1.3757094256517859,1.3384493951287402,3.6168697863177823,7.649670596926197,undefined,1493662120008
903d185fccf839df,11.561359643356466,1.1113306381396932,1.6577863681801142,1.8288959191576726,8.903991166637468,-0.9090716721844002,-0.07902498209787512,4.138506694706924,4.676547194881444,-15.14279785448432,-1.1426219736617484,-0.07237103103392677,-0.8913978943850268,0.8773517067403808,0.925032976022351,8.095718489340838,2.6823641615325235,0.44936166109493003,0.7768410363636203,5.58054018442184,1.5635074342175588,0.5516677829976907,2.9187421421930604,5.895146384917358,undefined,1493662121061
903d185fccf839df,10.537787856472661,0.8838621509997017,0.9862793537051047,1.7899426101423097,9.196297424402484,-0.8718219431613774,-0.18080428533189946,4.119168473819573,4.474389504202797,-13.873365912485562,-1.0784231258061983,-0.052942917506418705,-0.9044535427807487,0.9523442546201957,0.9734540637302777,8.243223139385895,2.5301507781437262,0.44793384818765314,0.7860622375537367,6.1452296450509225,1.6632146032497157,0.3322678742741657,2.8894874104313515,5.086785370852432,undefined,1493662121507
903d185fccf839df,7.235607860954295,0.890612940390067,0.9779851655045698,1.6011254788779148,9.08433851080277,-0.9801890536849346,-0.22626959451894535,3.0606608934608275,3.473550441434696,-10.502052807128587,-0.9110043308261695,-0.07297852020165527,-0.8348234180035651,1.0421501574424292,0.8376644641514353,7.691597471468727,2.3174138822000416,0.5993603760070231,0.6664710066968801,5.25879322966275,1.50468588018675,0.6131457703555278,1.5164400576786006,4.366683687727055,undefined,1493662122587
903d185fccf839df,6.472607402264885,0.9088104637878147,0.46661905532566106,1.4994406246137117,9.140701068723565,-0.9881630475852146,-0.2621475269432364,2.904814309369615,3.2810639008556404,-9.928867464114377,-0.8544738655346451,-0.06967472785708845,-0.847879066399287,1.0625185140128677,0.7839801891283555,6.980343227321352,2.2664113139875437,0.6372899249870109,0.6248572268449626,5.163026615647346,1.474483714710136,0.5601612032882267,1.3186168860254917,4.142103760447477,undefined,1493662123051
903d185fccf839df,6.221045574573809,0.8005060797224494,0.16739166704810254,1.477999784854841,9.34172992109756,-0.9319277560033875,-0.3235143030115108,3.009254021374926,2.884675959887069,-8.854186949614927,-0.8042865454874046,-0.06961124570632717,-0.6389886920677362,0.9014234149971982,0.7576643408993959,6.851024325230415,2.223821740834927,0.626210897533972,0.5825678730937801,5.352575040178758,1.4916240860449899,0.8257645007049225,0.7697170682119115,3.4383884424285123,undefined,1493662124097
903d185fccf839df,6.956325767298905,0.7919943622496892,0.21205248738926105,1.637315446093029,9.689853715740254,-0.9256244950020704,-0.3434230217465159,3.4100352124243876,2.630357071683681,-8.618863769270815,-0.7065979979598573,-0.05432457172628973,-0.6085255124777184,0.7569933208655879,0.6713485401138487,6.644922385085516,2.1730492234622845,0.6152400543454172,0.5100317897139985,5.438002816330354,1.4742723617589641,0.8112922080961693,0.799585201266995,3.1832672757426574,undefined,1493662124531
903d185fccf839df,6.631998103429863,0.7919943622496892,0.07743214262273278,1.7361816987945924,9.709260257891685,-0.9169177928400767,-0.3904369146790699,3.2158158858133556,2.809460005403319,-7.697590859315076,-0.5857291880561706,-0.07729275014958516,-0.499728442513369,0.7458832140033521,0.43555863186304755,6.558036235377351,2.1571382919562274,0.5926771102111374,0.4228281300454271,5.445724489259652,1.4247246688295414,0.7626217573668364,1.1003694291562653,2.9018750727605402,undefined,1493662125586
903d185fccf839df,6.806636607134881,0.7570668529494974,0.060843797988781846,1.7943668159650037,9.6360894557498,-0.8927734365524377,-0.40960272603346914,3.085220336850879,2.8025663764693314,-7.114199434167071,-0.5557772269735726,-0.1336948397275973,-0.4649133801247772,0.6940366012126326,0.44397970211835724,6.426696688343795,2.1274212438237847,0.603627999470524,0.38671723897610316,5.555857980518789,1.4346944958108403,0.7374790485888998,1.108684909481735,2.6542159840383235,undefined,1493662126029
903d185fccf839df,6.568242043798494,0.7978644537749184,0.060843797988781846,1.8345441494080712,9.730053698749204,-0.8652193770279923,-0.4316236754551403,3.178106780088797,2.4469482377836433,-6.4251377628668696,-0.510410035579882,-0.1240216200308469,-0.7260263480392157,0.7643998688290518,0.4187165208013633,6.309501429790792,2.108596923415675,0.65146362008969,0.32044888814700817,5.669839141286061,1.4398554488351307,0.6926343552456735,1.3379669290702705,2.419389294029516,undefined,1493662127059
903d185fccf839df,6.4421145576175824,0.7808410772853829,0.0767940365098493,1.816208229771256,9.621651206607748,-0.8277800769986088,-0.4694211496299507,3.0631359660058415,2.1588106401762786,-5.951536086426549,-0.5436189455628992,-0.0669362935884745,-0.7042669340463459,0.7495865138866331,0.3618742744913215,6.1397704202596985,1.8929951950464927,0.6708404333953778,0.3172755231273742,5.654215307891614,1.4320541016643293,0.7522489857783127,1.2198290398154539,2.1714802555102586,undefined,1493662127517
903d185fccf839df,5.99165940756763,0.6716561707228355,-0.08270876167336802,2.126078573220645,10.565384488819278,-0.7893429727945575,-0.6472907080978603,3.352625696677423,0.3017849531117298,-0.547128060409826,0.020061931041365656,-0.047649797407048715,-0.8565828319964349,0.777361625632928,0.39134809400724335,5.840720169461009,1.9198022206852066,0.680214841950002,0.33360815736297467,5.602273075135135,1.4241353694341259,0.66483814405518,1.3091699540957098,2.1786981364240985,undefined,1493662128595
903d185fccf839df,5.99165940756763,0.6358480220134921,-0.07824268599267589,2.00800209771146,10.680152297434788,-0.7520844612708506,-0.6528054098893326,3.559047431295776,-0.42647892345464733,-0.07442608273928518,0.16287411687807368,-0.09756927833358356,-0.7782489416221035,0.7569933208655879,0.41029550944392396,6.022575387824468,1.8702468443411524,0.6501643432358168,0.2998331215165167,5.467265134573535,1.3713650982565744,0.7069485049855149,1.3982530317246549,2.3206384978291963,undefined,1493662129025
903d185fccf839df,6.171841688422234,0.7726227503997141,-0.04889418866241342,2.2084567244190034,10.571432469723565,-0.7778970913912586,-0.6717505320702699,3.288917369463248,0.1622089111477947,0.12848553908944574,0.19064317203334644,-0.11585754396294543,-0.3996351381461676,0.8180983905769028,0.38924284853011726,6.010451631227647,2.012382537647101,0.6880683813343593,0.2880261016410215,5.673745331473533,1.4195776749731621,0.7059954729996285,1.7070628587566108,1.9457074844162063,undefined,1493662130073
903d185fccf839df,5.725544854310205,0.703354863709421,-0.04060004811255664,2.1921525093359486,10.594709010213728,-0.834991402287577,-0.6735703580966864,3.0648156821185,0.42146401416449636,0.19676682994818206,0.17728692151617426,-0.07698566093523096,-0.4605614973262032,0.7718066758080065,0.39766391878542695,6.010451631227647,1.88746260497276,0.7049743577683534,0.2708203978547423,5.712010432417309,1.4293050861016396,0.6783771054789907,1.6052176514247078,1.6683121713920055,undefined,1493662130532
903d185fccf839df,5.383199293607636,0.8025606322158743,0.0008707817052020074,2.053725277577777,10.281982690683574,-0.8658328580042643,-0.6620649569933593,2.561547967068648,0.1709884811434339,0.6064014426103345,0.12535746277257775,-0.0053071586744684665,-0.7303782308377896,0.7236633629005679,0.3534532042360118,5.747772424101648,1.7152763193536098,0.6512543092487617,0.2265204490383467,5.534101696393251,1.3539756546055788,0.6609122302377564,1.566607228093357,1.6271775774587847,undefined,1493662131580
903d185fccf839df,5.442798693560747,0.8677194139193176,-0.016355605507395045,1.8936780647008498,10.030970542533407,-0.8856779774849991,-0.6686841784655465,2.071369018005984,0.5752286734116282,0.7135248224036687,0.14507529373236577,0.04330752187809357,-0.6215811608734403,0.7366249642951497,0.35134795875888575,5.784143241656568,1.6962752141705855,0.6305611366907168,0.21169675238596222,5.433501450459465,1.3155080263253491,0.6889546195209632,1.6198550471383628,1.6517685735765233,undefined,1493662132030
903d185fccf839df,5.481607065910788,0.9921667104330211,0.06403385204641908,1.8936780647008498,9.911358171226938,-0.8599235775925611,-0.6548619181701908,2.0141008111285577,0.4917363672595046,0.8582031867204727,0.14966394687037482,-0.03649307330476637,-0.5606548016934046,0.7468091166788197,0.34713743835569844,5.357795242474546,1.5727394727760533,0.6599651678676836,0.20056915092207636,5.390444317318814,1.3065341397964716,0.6968428288325493,1.5364431913268735,1.6007326019666008,undefined,1493662133102
903d185fccf839df,5.481607065910788,0.7485551354767372,-0.022735745389788172,1.9452918582141578,9.893584499931901,-0.8079559208534043,-0.6896884389599512,2.0553069348200514,0.45159082487637786,0.7877190012420978,0.2950522089847921,-0.04881813972470308,-0.6607481060606061,0.8180983905769028,0.34082164302644996,5.2789918421251825,1.5773609375372175,0.6811753389337966,0.19025781214911036,5.3814027223251655,1.30552170604118,0.6969463063486118,1.5612635249208573,1.5767980496289669,undefined,1493662133609
903d185fccf839df,5.524573754198754,0.7743836784821089,-0.01380346695992923,2.0671645887819516,10.064337364539618,-0.7931838831668999,-0.6658571375325109,2.384382824420079,0.5079677710576066,0.8111881782048772,0.30888363580038025,0.1371565653473535,-0.8870460115864528,0.7921748769691502,0.34082164302644996,5.000147249340468,1.5291264580556947,0.7095218830407969,0.18030359634474213,5.401600100456551,1.3101353512700962,0.6706123984069103,1.5151662956866265,1.476255661497638,undefined,1493662134583
903d185fccf839df,5.419235639361246,0.8929609419265678,0.007250921587595136,1.8899079037801203,9.81263608150365,-0.7728333208910699,-0.6843946401029293,2.0824284889668654,0.34724664017788087,0.865129163247446,0.29469432830889963,0.11391525064067366,-0.8826941287878788,0.7819907763885784,0.3239795761381685,4.9253849127585685,1.4798401528036231,0.7033997168136986,0.16671559362559504,5.3682910120787515,1.2943974392610462,0.6743646926082423,1.5361373181074405,1.5142686518306805,undefined,1493662136394
903d185fccf839df,5.397059426589794,0.891200013844173,-0.024649746057251832,1.953253740512078,9.865483998852854,-0.7852761158261106,-0.687192753541583,2.1352079657774383,0.2669831646570292,0.9345821443928565,0.2816719499573794,0.05202412043466604,-0.843527183600713,0.7718066758080065,0.3092427252780779,4.870828686426189,1.546892409967085,0.6989884748241918,0.16192905962916201,5.36815563057135,1.2894343865776023,0.7162767562273138,1.5781150649862732,1.506988414590465,undefined,1493662140288
903d185fccf839df,5.323600997827637,0.9182027037577569,-0.039962037301029193,1.8936780647008498,9.887248533106076,-0.7777596612211773,-0.6836214767716254,2.2049289308935833,0.25765273757266327,0.9009111630849176,0.287836125526287,0.05202412043466604,-0.843527183600713,0.7718066758080065,0.3092427252780779,4.870828686426189,1.546892409967085,0.6989884748241918,0.16192905962916201,5.36815563057135,1.2894343865776023,0.7162767562273138,1.5781150649862732,1.506988414590465,undefined,1493662140478
903d185fccf839df,5.323600997827637,0.9182027037577569,-0.039962037301029193,1.8936780647008498,9.887248533106076,-0.7777596612211773,-0.6836214767716254,2.2049289308935833,0.25765273757266327,0.9009111630849176,0.287836125526287,0.041421847425913726,-0.9044535427807487,0.8069882319115688,0.3366111520721979,4.870828686426189,1.5681180080148895,0.7049273300452026,0.17054641921825606,5.365591498455006,1.293226493923797,0.7379437935558716,1.5652844368684142,1.491437513040261,undefined,1493662140694
903d185fccf839df,5.331917629703487,0.9182027037577569,-0.0316678967511724,1.8936780647008498,9.920203907145519,-0.7787449298438778,-0.676865505257448,2.260550005940066,0.24905924814407737,0.9388469855251976,0.2859845925681612,-0.005288192006651351,-0.9044535427807487,0.7819907763885784,0.32082167847354426,4.8566844544750785,1.5486222330352923,0.705502100998553,0.168279093034683,5.358392938286018,1.290725055022166,0.7328610223832505,1.555884755952481,1.4901061013525654,undefined,1493662140807
903d185fccf839df,5.397059426589794,1.1095697100572985,-0.004233304787017554,1.8791288775733366,9.719509407576403,-0.7424740174555465,-0.6529342690724055,2.182767566872371,0.0604194298410023,1.1485568042289913,0.24591970018528,-0.23040343704875405,-0.6607481060606061,0.8505025235711025,0.3113479265818012,5.0203535857077615,1.4843890223208602,0.7671563922956833,0.17173355520324746,5.4907040599087304,1.3333863476377388,0.7829500788590151,1.7829872734629442,1.4923721916215085,undefined,1493662141803
903d185fccf839df,5.331917629703487,1.0808058582373812,-0.024649777824370507,1.8600417981095145,9.791992724010939,-0.718329124124609,-0.6280273755404696,2.40361749525237,-0.11274890598708621,1.272309272523016,0.20283057286250886,-0.12512869493942033,-0.2908380681818182,0.9532701313941142,0.29661104627277546,4.882951990787466,1.4663389387434118,0.7869587920452533,0.17597266084479488,5.519471487110495,1.344023773133449,0.8021717993321806,1.8339917082121573,1.491422303127945,undefined,1493662142241
903d185fccf839df,5.218263435076684,1.170619386773892,-0.07824262245843855,1.835162722164753,9.920851938205317,-0.7154059331406344,-0.5964144768829222,2.6896209914441864,-0.4856345396998745,1.311720284140223,0.18362849513188312,-0.20728564501796395,0.5751866087344029,0.9282725204618292,0.27134792385365186,4.525304676006705,1.3213168243930022,0.8688837857759159,0.2220836566802122,5.815592867588551,1.4415087442510446,0.7826026153144084,1.6334750426252407,1.1966128759322423,undefined,1493662143304
903d185fccf839df,5.211333644628883,1.1888169686276246,-0.1535279935200331,1.8214035203613808,9.786705882923041,-0.6940025532107278,-0.6100526507394124,2.574035287499155,-0.3239758129900542,1.3026042389082149,0.1646056629777328,-0.31205869348278764,0.8232439282531195,0.8829067083684005,0.24503211979809492,4.4727691511463865,1.3081829827915563,0.8752927244009432,0.19879827054752708,5.966466840352281,1.4575046063760209,0.8445406216598201,1.6522288794885842,1.381854017632328,undefined,1493662143754
903d185fccf839df,4.967395304142911,1.273933909531287,-0.024011735245724385,1.8214035203613808,9.785749309931637,-0.6574544618569715,-0.5805094101390855,2.7362000628691288,-0.12920390220441194,1.5174990700425284,0.1790102725412839,-0.28553255090808594,0.8711146390374332,0.9486409029338165,0.19766369900213404,4.398006588446714,1.3334858662027513,0.9201932959262988,0.02243665506393463,5.953609137516119,1.3897152526291163,0.9784992703561765,1.815304759667087,0.8144469528133906,undefined,1493662144777
903d185fccf839df,5.20578959143602,1.273933909531287,-0.032305875795581175,1.8354689646606621,9.890642836458849,-0.6567696657289711,-0.5629133782725417,2.923713834010504,-0.2575258561337642,1.5951142977853794,0.15863010447688708,-0.2519360439383624,0.3271292892156863,0.9578992303466664,0.20397947960691495,4.373759075253071,1.3395516376166199,0.9139933438059085,0.015006042071946916,5.923982525811927,1.3798777491068603,0.9769063078176098,1.7775581872219188,0.7453618898184221,undefined,1493662145241
903d185fccf839df,4.89255058603926,1.2164065566273603,-0.23965951661047555,1.9643697298719147,10.249778232229488,-0.6330463638225782,-0.6165614226491457,3.3827656975275238,-0.866578541559237,2.2211075220975363,0.13378284316215958,-0.013900009827544345,0.15740586007130128,0.9875258366253071,0.16503205544392588,4.43639765523815,1.27325574528912,0.9042089446007349,0.022282725652841937,5.8854710092139655,1.370242868612394,0.9404884243554421,1.7807991032279713,0.7256361882756966,undefined,1493662146293
903d185fccf839df,4.327056056194122,1.178250464837501,-0.24284957066811277,1.7800850102266246,9.758728759899352,-0.6084356235649945,-0.6236198224864077,2.7449758730837823,-1.317669320607156,2.156502098075716,0.05472313815390258,0.027423470966366208,0.15740586007130128,1.0227075999412623,0.11976880650275315,4.284852393661175,1.2833929054459818,0.9223844920579098,0.01343175908027618,5.779406511702718,1.3484847457405493,1.0247411861058608,1.8430234071530835,0.6872983422877369,undefined,1493662146763
903d185fccf839df,5.216877697821746,1.0438239133557339,-0.3021846396744025,1.9201472260949026,9.946411885853438,-0.5612196134856863,-0.6058738907094441,3.21350371421947,-1.7847863422365253,2.218830394788604,0.03587739746610932,-0.13978847484719342,-0.10805899064171122,0.9810450877311144,0.07871625465837868,4.10299762753326,1.208372202008115,0.9381281894308732,-0.008377299474182096,5.585617069770475,1.2963452447365424,1.213870774575986,1.9511959388288795,0.5117085398462766,undefined,1493662147791
903d185fccf839df,4.565450895573787,1.0837411670519268,-0.2894244234438536,1.9201472260949026,9.843410913449626,-0.5264394143127591,-0.6040356557314316,3.1433082310999576,-1.2929345733573212,2.079923726828422,0.08437296796848177,-0.08358492165380418,-0.19509664661319073,0.9578992044451172,0.07871625465837868,4.109059618890557,1.1673450080760528,0.9694762602463967,-0.0142476249803071,5.613272680484466,1.3108806781739637,1.2760068254285732,1.9461507255155226,0.4225376229145219,undefined,1493662148225
903d185fccf839df,5.216877697821746,1.1553571137347054,-0.22881333281450897,2.0705681311974993,9.943315881764443,-0.473290832872911,-0.5613670523546566,3.6038588911654172,-1.4416944350410565,2.6136399620306063,0.07547321273910879,-0.025127337736420455,-0.09065145944741532,0.9578992044451172,0.033452887921465294,3.9837817805670825,1.1865724576500145,0.9505280916341603,-0.041304292340681795,5.976660594127128,1.356918833645685,1.1283680027341976,2.3857308630424647,0.6490840601620239,undefined,1493662149298
903d185fccf839df,5.683964455363733,1.1706195036858615,-0.1796865003268957,2.2185651499116417,10.107002465038788,-0.4860061508509157,-0.534469396864202,3.8365023009084798,-1.5048219905517635,2.8127863994668747,0.0909327805570001,0.016682866652489664,0.009441844919786108,1.0032650942431933,0.017663429047279255,4.0140906067647055,1.2255931414537429,0.964397238675215,-0.04753145442465046,6.09153299613329,1.384485627426576,1.110577128268641,2.4363132687318267,0.6128948971641401,undefined,1493662149729
903d185fccf839df,5.276476545688301,1.180598407918017,-0.16884031653092912,2.2742617165309893,10.076844814261367,-0.46797085335338906,-0.5326627203133947,3.8899883348593915,-1.6194751313163738,2.898299654531617,0.0694100089039035,-0.1040280608922631,-0.07324392825311943,1.0208559240980726,-0.009704997746840718,4.018131783591055,1.3016218353391145,0.9928638207210219,-0.06758431387113999,6.057794998350642,1.3730473705763735,1.0188882139262454,2.8268216333753036,0.6887864243647234,undefined,1493662150806
903d185fccf839df,5.904340845823315,1.0221044753372117,-0.147147948938996,2.2948755208095992,9.995762659367783,-0.42393658585143845,-0.5264695268713778,3.965716458508729,-1.6418308180232224,3.0556817843523634,0.06841434099624728,-0.18857904039085205,0.03555314171122996,1.0495568090120895,0.016610776859781066,4.022172960417405,1.2920171036009498,1.0057070304766262,-0.05526293008247222,6.071899978741227,1.3830526486146402,1.0294447059004048,2.878950212860384,0.6922402806013879,undefined,1493662151247
903d185fccf839df,5.796232360649042,1.1142660638662083,-0.09738297857138058,2.386212085483193,10.12795444845298,-0.4177082025286561,-0.5018124657487452,4.221630210944277,-1.5474560099300434,3.1583358913025292,0.07779858225553478,-0.19759031837071367,-0.5084322081105169,1.0523343357276485,0.03555819229646168,4.003987438581059,1.243024515880016,1.0251808319191864,-0.05072899686071674,6.104375303647259,1.397879208999454,1.0657374509753688,2.8058703897484074,0.67216596105105,undefined,1493662152277
903d185fccf839df,5.941763480918418,1.0221044753372117,-0.10503910830970992,2.396318127558661,10.190008049553681,-0.43503774099755693,-0.5005764567459592,4.231880690256978,-1.4384748092516024,3.154431184121238,0.10735099862328525,-0.1480094889252757,-0.4823209113190731,1.056963512384848,0.02608446985365379,4.010049429938356,1.264170921076065,1.0089558306052748,-0.044872666089650126,6.055623823775764,1.3843611920423555,1.049034184655753,2.7905857182198477,0.6809468694497233,undefined,1493662152738
903d185fccf839df,5.817022836165556,1.209949391648025,0.011716997268287252,2.3508892125239518,10.234997683570686,-0.5494709350477125,-0.4911722706723936,3.890071162475808,-1.3196071527544961,3.219445926495515,0.10753306494750182,-0.04436286308675404,-0.691211285650624,1.1088101769786656,0.009242388240904726,4.07470916363104,1.3739989764384504,0.9461520286382685,-0.07043901282504861,5.8010721261015075,1.3046783961435198,1.0547098628239053,2.989711049522733,0.8424361878106918,undefined,1493662153788
903d185fccf839df,5.97641408941709,1.2175803527996645,0.0519116783945163,2.4086408142135807,10.100440196709908,-0.5941177919262176,-0.47034157779582053,3.635321732945482,-1.0039199087351856,2.92902464702907,-0.0012020923703606199,-0.05283071473660314,-0.6128773952762924,1.162508569218771,0.02924242641614836,4.001967189344542,1.3976459955653209,0.9434351960165974,-0.05561277130529989,5.769505312801997,1.302422533537706,1.0876257185852716,2.980258836679343,0.8830783386793214,undefined,1493662154234
903d185fccf839df,5.790687203283068,0.9410961717725216,0.24140108002087957,2.100259493949875,9.569441087253008,-0.6789253891656147,-0.29147531988698244,3.1308048368689,-0.20700618778624594,0.5962607434210366,-0.19360956419438052,-0.20197196852218918,-0.7651932932263815,1.0708509387502498,-0.09181038120047372,4.404068014509581,1.6577585262587953,0.8909224269329299,-0.13289254655734264,5.51834126768715,1.210513695231066,1.1040581817701778,3.1619772989986634,1.0910789898769881,undefined,1493662155283
903d185fccf839df,5.609119737260082,0.8254542171426084,0.25224726381684615,1.9676895885346395,9.254904462222141,-0.6721100358112501,-0.2498428601387733,2.8227756815039413,-0.17362249369438712,0.34347067448177915,-0.2006757845091785,-0.2600976212320955,-0.5824142156862745,1.1143651527051364,-0.13496834049111764,4.646540998327171,1.6976850709245574,0.876457983773087,-0.15065744887774393,5.439193256975867,1.1875289300448784,1.0832013525154498,3.2776339458234425,1.158193920316704,undefined,1493662155721
903d185fccf839df,5.514870832981411,0.8049085752963904,0.3281704868543747,1.9069166099620238,9.252744469993141,-0.7031261847632913,-0.1855441020775618,2.79191728493853,0.09003975395682882,-0.2219804907346338,-0.12280682307299558,-0.19577131160792346,-0.13417028743315507,1.0958484719778876,-0.13917889034324007,4.6505824012712935,1.7334158485921374,0.8302908241766527,-0.15187489410486116,5.162945145507938,1.1144030348803065,1.0890131832708896,3.177079319728046,1.1923741771798295,undefined,1493662156881
903d185fccf839df,4.968781593484405,0.49261636247187357,0.6714208117300391,1.7956985742212817,8.791050393531098,-0.7242570423460821,-0.06395238945306371,2.5584825487212624,-0.11726269114313476,-1.275566323298643,-0.14190196332746804,-0.21662628325189717,-0.012317569073083769,1.0986259727918974,-0.1307577906389952,4.7879834308971585,1.689094475009725,0.8016532523027465,-0.11735262804039186,4.965460081622715,1.071568482875997,1.0002371762490334,3.2975953490174144,1.1534838623780552,undefined,1493662157229
903d185fccf839df,5.850286603236179,0.4544603875939834,0.6567464359964331,1.9847433854588337,9.273038185825307,-0.7497296022477453,-0.004805420436281443,3.25022441326251,0.9249096449498103,-2.120758835572127,-0.0909542786854417,-0.19312551681194604,0.3097217580213904,1.146769311600885,-0.026547167706395276,4.761715555408113,1.7923137362705308,0.8632537934373917,-0.030767091061974894,5.356442002666267,1.2030408945729887,1.2818345901253154,3.7962678595639834,2.0078313185077836,undefined,1493662158231
903d185fccf839df,5.197473511646725,0.8266281302268818,0.6516425401069256,1.755347858518358,8.703426553973905,-0.6610275157205007,-0.05324644842264204,2.883829047244875,0.07247494359650515,-1.8292887746130415,-0.3727480441041086,-0.13774511477094886,0.20962845365418897,1.1310301575891955,-0.04865248080770013,5.3274859640413785,2.008254165644997,0.8252497989774923,0.009548532530445249,5.670755074939164,1.2629738649457285,1.2993710844359436,3.976479183118464,2.3963489048732765,undefined,1493662158732
903d185fccf839df,5.139260953121664,0.8413035051799164,0.6318641414153374,1.6499231601804574,8.777123523095467,-0.6203310480191002,-0.06301354745602838,3.199745037938806,-0.34627686096760435,-2.375017952223826,-0.47130799691947595,-0.09883399712438984,-0.45185773172905525,1.117142601716048,-0.033915615223141946,5.624515400309122,2.188825038207477,0.8234512465719457,0.057483684819173396,5.8824683015013175,1.3218491173192928,1.521614066162413,4.054565654650082,2.670472429862742,undefined,1493662159886
903d185fccf839df,5.158664587210128,0.8189969352513037,0.6261220441115904,1.5352616427751318,8.93052440294568,-0.6338313160667796,-0.0697274422457277,3.3697422521374616,-0.5065970151867879,-2.7010465712942895,-0.4578474118063811,-0.08064952432508544,-0.4866727941176471,1.1291784558444566,-0.021284024564644986,5.648762687384992,2.196469205534799,0.7917168659872448,0.05850522015531281,5.808386381226586,1.2999579674739143,1.5504699224636411,3.9861087494435616,2.593803357233447,undefined,1493662160230
903d185fccf839df,6.013836172425638,0.7268355805462459,-0.011251455480938128,1.9884557605184199,9.35154882267885,-0.3956013897917328,-0.28059318128795774,4.24265718666702,-1.1283419208748513,-1.2228685423927348,-0.296751236520044,0.07809283912332492,-0.4300983177361854,1.0365951558144095,0.05029499898314952,6.198367936477314,2.2515839572301095,0.7698618782479683,0.10842046948171223,5.936994188587685,1.3290038125680215,1.5776486794184104,4.201570918531734,2.7330773664339225,undefined,1493662161231
903d185fccf839df,6.261932828849535,0.7420979704974019,-0.4183027979751096,2.2952577491418125,9.622895804826923,-0.325530888205307,-0.456771777830966,4.365061231240992,-1.5733264622194634,0.4807670124596555,-0.13111357298898765,0.1004119699721893,-0.3996351381461676,1.1254751559611758,0.04082142378501746,6.109461141826531,2.2798587802089525,0.781818477306124,0.12240709559254857,5.993244710354924,1.344300894780965,1.5937092409006393,4.336256849041107,2.8769499456058925,undefined,1493662161696
903d185fccf839df,6.073434468205637,0.2660284562850487,-0.4533934561433564,2.0736912777911405,9.209328466199816,-0.1542223310394965,-0.6025208883798755,3.9841111099736124,-1.7044711060329352,1.6104180210332437,0.14934390908271794,0.12541523212671227,-0.5475991532976827,1.0893676971821458,0.2702952422172185,6.238779930858583,2.2118098726147775,0.762724651282751,0.18619701980467904,6.138251877867221,1.3833458302663206,1.7324431504338615,4.0673453475303205,3.000899097092902,undefined,1493662162734
903d185fccf839df,5.674263190406056,0.5742116810346851,-0.3168589518737711,2.135506896819014,9.558147320946288,-0.240627790395252,-0.605276925585077,4.043981888927176,-1.4446857736939516,1.4699142890259065,0.2474239460501673,0.1270886044015398,-0.6302849264705882,0.8764259076711096,0.33766380425969605,6.491355856742048,2.0010067473422892,0.7326241702720132,0.22753417961409544,6.230796525764259,1.424869972799161,1.6776443625651394,3.5055763135321634,2.5655562422195857,undefined,1493662163185
903d185fccf839df,5.681192980853857,0.23961243063367818,-0.4183027979751096,1.9842949896053304,9.25588160556335,-0.31062143017758165,-0.6484820094740341,3.1008649023647594,-0.2869010601693057,0.750958118206028,0.3085141086338275,-0.016538765129900622,-0.7086188168449198,1.1412142840713162,0.4092429161542961,5.719483734081656,1.6242182552489435,0.8359461469776966,0.3530989490016341,6.937554374238652,1.6544694065337295,1.9362934505450995,2.688728864948278,1.2946265846666438,undefined,1493662164228
903d185fccf839df,5.79761809790398,0.16506164278423135,-0.4163887655405273,2.3247106027573308,10.03389171554946,-0.41587276288210967,-0.614084146894361,3.620505519261155,-0.3355561952843973,0.8518350701200826,0.3084853793261356,-0.03704520115673273,-0.669451871657754,1.1495468901195423,0.4071375823303645,4.998126660927293,1.286177894873589,0.9000355380780899,0.2564310090486053,7.17793950165807,1.6816235258734482,1.80151648625193,2.0289282724785114,0.956567458893929,undefined,1493662164690
903d185fccf839df,5.1531216381903775,0.34879745410819496,-0.2530578071867893,1.8979038738314693,9.94476615339383,-0.3861842766736276,-0.6338523968801671,3.582548729969496,-0.323213160544378,0.6547414099601676,0.3390037342637477,-0.01107365185995836,-0.7303782308377896,1.1014034736059073,0.37029537419556635,4.412150594280052,1.0788937379170325,0.8901244811067015,0.26787079277052295,6.893530225385025,1.6218848008412778,1.729362348385274,1.7228940466862137,0.5848698567986502,undefined,1493662165731
903d185fccf839df,5.506554753192116,0.4503511656951643,-0.2996326599625301,1.8092691918443793,9.626495844454281,-0.37614525798499265,-0.6234252166536447,3.3334879240611732,-0.7559684638677517,0.7708797094727066,0.4021798713533811,-0.018026911437667235,-0.7782489416221035,1.0514084848552792,0.38503232812693,4.109059392772784,1.0513149912509396,0.8216653604523942,0.2240987445071512,6.8486745582560165,1.5874250985391802,1.5418565091319265,1.2164167756111333,0.33733454743189933,undefined,1493662166187
903d185fccf839df,5.768512094684727,0.4932031436460563,-0.31813490996258864,2.0381783723753024,9.5519450967314,-0.3523916772739367,-0.6141525188055256,3.3892060224347187,-0.4284069676437051,0.4525210334964885,0.46561932620319774,-0.041474835952625445,-0.8174158868092692,1.0217818267735401,0.3071375386988222,4.228275691974507,1.0531593621177302,0.7447010936488698,0.21664014246712374,6.8124420168074815,1.5821261127676005,1.4012136277392606,0.35340679270088426,-0.33413235643919476,undefined,1493662167222
903d185fccf839df,5.568925075568547,0.4797019156012337,-0.19308472736897206,2.132110532040996,10.165013784988796,-0.40106345810021,-0.5557760843968406,4.094520109606246,-0.8153089881447839,0.5555582728816053,0.503330234798609,-0.06476753662810014,-0.8348234180035651,1.0069684459295725,0.31871641827195063,4.583902644459865,1.217727908628,0.6344762089604729,0.18320238368509256,6.49672768999728,1.4830226499681458,1.3104676612078283,0.3224334922701848,-0.4925579530318363,undefined,1493662167695
903d185fccf839df,5.359636791494691,0.4303926557590372,-0.17075434896551148,2.132110532040996,10.022454023371449,-0.382324729187364,-0.552236365399387,3.976132806834048,-0.8052822196949871,0.5177681677184153,0.4966268126600467,-0.06603701442640338,-0.8348234180035651,1.0143751234007816,0.3397691675325628,4.408109643571475,1.1546344636657218,0.6784711696783778,0.21588448654988723,6.583590324596541,1.5250939102262073,1.3633951555116244,0.23661922406982783,-0.5960983972102532,undefined,1493662169066
903d185fccf839df,5.348548685108965,0.4339149795717042,-0.17075434896551148,2.132110532040996,9.99375692786192,-0.3713889510246364,-0.5243840907278682,4.072544960187348,-0.7275541603312269,0.611379467954036,0.6057671121403139,-0.06837552616011985,-0.9044535427807487,1.021781800871991,0.3397691675325628,4.436397881355923,1.1572646376636109,0.6735188082209573,0.22406375888680014,6.565527946028313,1.5244014481065864,1.3398412789302097,0.2644994705853162,-0.6312223473336881,undefined,1493662169300
903d185fccf839df,5.0644162350180135,0.5207929654697309,-0.08589878396388656,1.96748272714774,9.595895895178684,-0.37519259786780723,-0.5154664185405899,3.561797751546713,-0.21366092447980156,0.29499184744688184,0.6210392178369656,-0.04270855386545702,-0.843527183600713,0.9634542060731369,0.3281901407147585,3.8463801856467867,1.0652775906181529,0.6006012928923666,0.19800063920309802,6.1132601997770655,1.403214311027084,1.2456073165948194,0.1497916886156809,-0.48746081063922664,undefined,1493662170287
903d185fccf839df,4.855127950944157,0.5172711093049412,-0.0820707190947219,2.07509283907146,9.643909525281298,-0.4038888240315389,-0.514759001277929,3.454289559223608,0.1539517590691908,0.25491896816899956,0.6572508063487722,-0.02161077942871572,-0.847879066399287,1.0273368025000107,0.3113480296530743,4.102997401415488,1.0755167931540623,0.6100880425543197,0.20964333255082535,6.015187500231561,1.3939237646465092,1.2031271434159305,0.1015506908524517,-0.5233507907766268,undefined,1493662170724
903d185fccf839df,5.128172294649382,0.4932031436460563,-0.08653679477541401,2.187939510907958,9.596276445113675,-0.4010355073727519,-0.5025093642722099,3.40994975832498,0.2848516662522451,0.5166872527824494,0.6593291111079077,-0.046372738343438795,-0.9436204879679144,1.0282626274708309,0.3397691675325628,3.8504215885909088,1.0742694639971249,0.6039007577497443,0.23698686770740027,5.666689887845332,1.3253570710575966,1.1860904469484745,0.11176359539804927,-0.6280341855846701,undefined,1493662171783
903d185fccf839df,5.018677520133616,0.4656135556463204,-0.08653679477541401,2.2155597938600495,9.425389885011292,-0.36800223690015477,-0.4969473244471094,3.2679358689975975,0.802454242488785,0.6444381682357613,0.6462041686164233,-0.034646039236878444,-0.9653799019607844,1.0560376615124785,0.3029269299488294,3.735247031509967,1.0969551937981399,0.5942873481512034,0.18779229061087757,5.742250062113865,1.3156001877774124,1.1776101521439373,0.16465042993847318,-0.3734171109143132,undefined,1493662172237
903d185fccf839df,4.677717696685985,0.4515251956914071,-0.19308472736897206,1.9759407362459886,9.162580055879523,-0.3899623037659145,-0.5369782335586074,2.7937839568188463,0.651246619008909,0.46633830132451265,0.6297180258900692,-0.008993082511092881,-0.8826941287878788,0.966231784591794,0.3081901908863204,3.799906539084879,1.014290645919074,0.6140461317990232,0.20812502366079294,5.913834942993176,1.3615636042848345,1.1873410192561293,0.10573107299699504,-0.503013046106634,undefined,1493662173269
903d185fccf839df,4.788599864716357,0.4750057956162626,-0.17904848951536825,1.9032526129452407,9.263050739029847,-0.3638515334031033,-0.5365180171668281,3.0944656128066095,0.5296385941152374,0.40038729913894955,0.6311583922984574,0.039455894681839306,-0.8609347147950089,0.9671576095626143,0.31134805910200947,3.747370675047902,1.02787960785702,0.6115762835101535,0.22514826357560414,5.865961174687127,1.3553421944247297,1.2343243629333276,0.10621094472151939,-0.45156063485394354,undefined,1493662173747
903d185fccf839df,4.83711005411063,0.6035624309407546,-0.21924323417583466,2.1986758304449463,9.642016952721098,-0.40857758312026604,-0.5163552950901923,3.4051643027372926,0.9156578937631216,0.39138910329191245,0.6491497835301404,0.08026918325284459,-0.7086188168449198,0.9569734830804933,0.3481902377878725,3.7029172777225106,1.0590796961583726,0.627566967142678,0.2287656139363405,5.909246212038975,1.3759597905782086,1.2871764834027026,0.20037995280803064,-0.44162061792991714,undefined,1493662174769
903d185fccf839df,4.715140883867644,0.5172711093049412,-0.13630170160879207,2.2926476609854873,9.63567067767437,-0.3920539608689578,-0.4969736236602078,3.4850078237341298,0.7516374960030556,0.5356912389546062,0.6409338221987897,0.07438953135584916,-0.6607481060606061,1.0051166664801865,0.37450604184342945,3.6766492891745792,1.040948516391239,0.6723282150144645,0.23437705553762248,5.997694882251651,1.4145609420206395,1.283591893859465,0.17036777034448888,-0.5620913359677485,undefined,1493662175224
903d185fccf839df,4.956307197757185,0.4350887757440083,-0.15863214354649002,2.0439749416535204,9.234837047252867,-0.32523274390378704,-0.4749437390293399,3.2686074391011517,0.5807288430092246,1.0680663872533334,0.5186954206673976,0.13082099248364978,-0.6520443404634582,0.9801191850556469,0.34503228122537793,3.801927127498054,1.0735555468665468,0.6764002988122374,0.2359653321021102,6.173021577822056,1.43092670073398,1.2519633101828251,0.9000635434204755,0.07000463187069304,undefined,1493662176281
903d185fccf839df,5.1087686605609175,0.37462611402553603,-0.2390216328674228,2.135722354329365,9.186885118981264,-0.30552039255300456,-0.4956560921903912,3.3357978905483243,0.23938364822719607,1.1317830290998547,0.47874142261495967,0.07121770571766335,-0.7173225824420678,0.9727125334859867,0.27240057604115003,3.7514118518742516,1.109145194635699,0.6926316338504963,0.2586699835009177,6.348871828641944,1.4815018992435105,1.2294308667062668,0.7947590698907991,-0.0840370821756336,undefined,1493662176822
903d185fccf839df,5.002045912641583,0.4609174356613493,-0.1867046192536976,2.2422878897617506,9.625662678581806,-0.2930426558163799,-0.47533821190581077,4.06049146045115,0.04037995056641596,1.118584216715975,0.4972081889489934,0.02868374863116588,-0.7782489416221035,0.9217916679614401,0.29661113461958094,4.604108076356069,1.256099357746381,0.6313984011624968,0.24108000072450284,6.433732666060152,1.478770187560107,1.2998682258414074,0.9610692006625233,0.020805430411786747,undefined,1493662177809
903d185fccf839df,5.002045912641583,0.5178580073910932,-0.15735612192343512,2.203052161469429,9.590989588661774,-0.3368742790075947,-0.4673961978510671,3.866912911425664,-0.4625168552362116,1.3671500165457988,0.5096292425192046,0.042580334444726815,-0.8957497771836007,0.9541958527587381,0.35976905846313056,4.654623238920984,1.2850145835165088,0.6370663869662924,0.23026293109692592,6.463297681317021,1.4908722984856977,1.3435521764737426,0.9199817062084676,-0.049363030992255454,undefined,1493662178234
903d185fccf839df,5.351321815878507,0.38930160589054,-0.1286456354047001,2.3012142643498548,9.54483766176705,-0.25373674373550437,-0.43886543231464487,4.1967468564187165,-0.3416202942601879,1.8003165590413086,0.45532739717569737,0.05204256968636176,-0.8826941287878788,1.0032650942431933,0.3966112665979288,4.454583177074496,1.3255125449930591,0.6548809580678524,0.2241617125262964,6.536347904575631,1.5099279653118791,1.425576475631323,1.0296952521068792,0.012338999782582629,undefined,1493662179271
903d185fccf839df,5.629910212776596,0.38930160589054,-0.19755080304966416,2.2263993067776195,9.123885228527662,-0.2429290722134799,-0.45173307244688454,3.712038662046922,-0.4005698346344552,1.6516988261204886,0.46333116136668956,0.0614945271745087,-0.847879066399287,1.0699251396809788,0.405032248506433,4.686953105767327,1.3667412080298895,0.6588327130622254,0.22189474646289567,6.608812987688099,1.5235968158882849,1.496468794063275,1.2622884522193727,0.25508732394451944,undefined,1493662179733
903d185fccf839df,5.696438851090952,0.4474159737925881,-0.18032451113842315,2.2839680367955952,9.472858335419035,-0.219413073555627,-0.4653317970254362,4.2563074833566255,-1.0324471707563943,1.401867825483532,0.43072046906126327,0.05432350463536704,-0.8043602384135473,1.0282625756677328,0.37871650334874635,4.838498593462075,1.367897536783852,0.6949431584976009,0.2508335561020231,6.693104080995854,1.559175799846207,1.4743585345834003,1.2307151425059877,0.2699378101223882,undefined,1493662180979
903d185fccf839df,5.696438851090952,0.6018010352104823,-0.19755080304966416,2.2696385185924584,9.431818407272337,-0.24506032669264374,-0.4727136624186624,4.103531118684643,-1.1481492207782797,1.3825738197506527,0.4444192759240655,0.04772399196364122,-0.5606548016934046,0.9893776160746931,0.3724007080194979,4.969838197025074,1.3667412080298895,0.6673758550851635,0.23672798596187977,6.626536600483432,1.5337956240742086,1.4257946201180558,1.2359829325883849,0.25984627930438114,undefined,1493662181420
903d185fccf839df,5.886322396903233,0.6945494049136615,-0.20839698684563074,2.281611623916903,9.475326908501776,-0.25206900926552905,-0.4803295812367347,4.148511751671033,-1.1986843006721986,1.452540509453337,0.45506275370949795,0.056952685304959325,-0.5345435049019608,0.9653058560147775,0.3724007080194979,5.186043418412505,1.3793457396947029,0.6244004988806684,0.22535816918648735,6.561139403494254,1.5066412944332173,1.367138543955009,1.2134575894756776,0.2240338854802191,undefined,1493662182314
903d185fccf839df,6.016607646935513,0.6411311569965846,-0.2166911909297249,2.2839680367955952,9.694926554104683,-0.24725680108220632,-0.4523957817412614,4.516977805681409,-1.3176079603334272,1.3090900700892583,0.4533914760870117,0.06649225568095943,-0.5345435049019608,0.9764158592708169,0.37766396895698884,5.00822982911094,1.3667412080298895,0.6390992608569154,0.23520268171683137,6.600636410154025,1.5262848545461636,1.3949647266341239,1.072490512189285,0.12503051003883922,undefined,1493662182710
903d185fccf839df,6.234213114971776,0.5513177453720429,-0.1203513677863686,2.2839680367955952,9.752547040481197,-0.2582251880983731,-0.442205283793732,4.569856625488803,-1.4434567144902721,1.43777917178278,0.4635370536809572,0.025285150213742596,-0.7477857620320856,0.9653058560147775,0.41134810273355177,4.931447017174751,1.2761904312265056,0.6081058345385155,0.23363539531582292,6.311699975545814,1.45325591613942,1.360868108491884,1.2433115975573004,-0.0023939958223405237,undefined,1493662185623
903d185fccf839df,6.234213114971776,0.5513177453720429,-0.1203513677863686,2.2839680367955952,9.752547040481197,-0.2582251880983731,-0.442205283793732,4.569856625488803,-1.4434567144902721,1.43777917178278,0.4635370536809572,0.025285150213742596,-0.7477857620320856,0.9653058560147775,0.41134810273355177,4.931447017174751,1.2761904312265056,0.6081058345385155,0.23363539531582292,6.311699975545814,1.45325591613942,1.360868108491884,1.2433115975573004,-0.0023939958223405237,undefined,1493662185672
903d185fccf839df,6.2439143799294525,0.5513177453720429,-0.10184905425207269,2.3110562113485233,9.81144293771042,-0.2591056405943017,-0.4368062925690189,4.6576760954155025,-1.4119568077461762,1.5774011407071022,0.46667400848743246,0.017376250979487994,-0.7738970588235294,0.9653058560147775,0.39450608001867304,4.91932326057793,1.2761904312265056,0.6071368940838978,0.24387872678183392,6.275867792521126,1.4492014549422343,1.331056208033574,1.3048962194440086,-0.032129636510804145,undefined,1493662185768
903d185fccf839df,6.834356597055918,0.5971051490494499,-0.0744146528906299,2.436085615516043,9.90056848552632,-0.24260530746522768,-0.4126962305177221,4.883578506885202,-1.4258453462918401,1.2284010147016051,0.47590941100803563,-0.018854360259098,-0.9044535427807487,1.0393726048253213,0.4050323074043033,4.731406729210491,1.3708640540355075,0.6018868823524168,0.21065087177556738,6.59225965410807,1.4944412484620353,1.3976040421148235,1.4059837906546995,0.46802669232632377,undefined,1493662186791
903d185fccf839df,6.697141556575837,0.4797021494251724,-0.059740404225498665,2.301464602183995,9.72693563059709,-0.22494501618929186,-0.3997865127444226,4.72683496734498,-1.3235576692139626,1.3514678314431336,0.47897314481874753,-0.04143665680513106,-0.9131573083778967,1.074554316338178,0.4239797228409839,4.701097450777323,1.3943498312453335,0.6324750005301499,0.21841733198325441,6.532467487330345,1.4876459384155243,1.4472854292163289,1.627149625137527,0.5539743954707587,undefined,1493662187227
903d185fccf839df,6.834356597055918,0.3605377540706227,-0.0814327718174318,2.1985424140438408,9.698073959997922,-0.24349740660981878,-0.40983763101017345,4.5695907467096735,-1.3865463521759198,1.189732708172306,0.44926701776261896,-0.10699596408158225,-0.9392686051693405,1.0134492466268632,0.4187164913524281,5.04864238878664,1.417107827278442,0.5929700969681023,0.22335708169783478,6.487627217206317,1.4717594217028769,1.455156315466421,1.5188242927172584,0.4847647752163832,undefined,1493662188259
903d185fccf839df,7.096313938548529,0.551904643458195,-0.11333331239380405,2.1985424140438408,9.792177799800244,-0.2453561400175895,-0.42247121941979016,4.6632091623535015,-1.0957832356187087,1.1549004993494176,0.47708272567722243,-0.07938085369679997,-0.9523242535650625,1.0032650683416442,0.4113481910803573,4.945591136066975,1.3667412080298895,0.6252807749346828,0.26691222955807686,6.6431361194780765,1.527949350206729,1.4420250189095387,1.385934367448031,0.2977630635632213,undefined,1493662188726
903d185fccf839df,6.697141556575837,0.5747983452968984,-0.1790484259811309,2.228521195375677,9.606130120618731,-0.2609573853634162,-0.41929441539536344,4.3617243911639685,-1.106518717886057,1.0217486665522932,0.54918642369076,-0.08512249788705602,-0.9436204879679144,1.0458534314241612,0.43766405403378456,5.012271232055062,1.3109832642131356,0.6088024559511892,0.23696587792929572,6.570378460746068,1.4962002293910952,1.5239839027939834,1.4993566126083664,0.5037926958750596,undefined,1493662189864
903d185fccf839df,6.729019586391521,0.5747983452968984,-0.13119761511657252,2.3501665446694395,9.753750448451857,-0.26298615399653397,-0.40080950851776465,4.543411507871706,-0.8565126652031297,1.1777084289542534,0.5968689829595453,-0.07534788728133118,-0.9392686051693405,1.0828868187802076,0.4902956326959633,4.848601761645721,1.2968697027269653,0.620594397510353,0.25519956696380947,6.692210963378756,1.5304833228918284,1.5496280753999117,1.4920862301438984,0.43051944005810977,undefined,1493662190245
903d185fccf839df,6.875936996002391,0.7086382325164522,-0.06803454477535545,2.503218577460542,9.972300923249101,-0.28683756474715,-0.4015274443395792,4.6931604438774,-0.15788028401595902,1.2717746326626997,0.6987512515306109,-0.0027431126328822312,-0.9262129567736186,1.0504826339829096,0.48187456244065363,5.242620572334718,1.2875182859131933,0.617985225202494,0.2670871488329129,6.72681126947536,1.5442364474391301,1.524207275423836,1.446496576181479,0.45664091948820806,undefined,1493662191273
903d185fccf839df,6.687439187445049,0.8477609039831904,-0.07058658802146524,2.4022395173911657,9.750932153815763,-0.24641128969201317,-0.40574302308907007,4.579099533859824,-0.11717016222439637,1.3029589714345877,0.7111834395228176,0.000530803794320834,-0.8783422459893049,1.0115975707836737,0.5029271644565899,5.260805868053292,1.2890273492075355,0.6062692787238454,0.25508761794084606,6.879794826209287,1.5612155497392801,1.5926886096740336,1.5877498487341757,0.5988911384286787,undefined,1493662191724
903d185fccf839df,6.729019586391521,0.6317391508505811,-0.03358189741863606,2.4022395173911657,9.756054424935355,-0.26245508913105975,-0.4197493700197018,4.529900384694949,-0.24353844466108723,1.205981769170118,0.7469276076724464,-0.009861925889183694,-0.7738970588235294,1.0115975707836737,0.49555877583771357,5.460845703782008,1.3057856507041192,0.6051736800157865,0.23574143507773274,6.893638030159815,1.5602371442131724,1.6727945792754333,1.5105868997382519,0.6344261074686366,undefined,1493662193565
903d185fccf839df,6.729019586391521,0.6317391508505811,-0.03358189741863606,2.4022395173911657,9.756054424935355,-0.26245508913105975,-0.4197493700197018,4.529900384694949,-0.24353844466108723,1.205981769170118,0.7469276076724464,-0.009861925889183694,-0.7738970588235294,1.0115975707836737,0.49555877583771357,5.460845703782008,1.3057856507041192,0.6051736800157865,0.23574143507773274,6.893638030159815,1.5602371442131724,1.6727945792754333,1.5105868997382519,0.6344261074686366,undefined,1493662193591
903d185fccf839df,6.672193869294509,0.7303579043589129,-0.05208421095293197,2.3126612946295233,9.77352981335489,-0.281321929787498,-0.4476700207597374,4.433137996277873,-0.25726855601032145,0.8709749059021602,0.7495612032169126,-0.004952743489175625,-0.8565828319964349,0.9523442546201957,0.5029272233544603,5.3719389091312255,1.2727181705957755,0.5981124486626046,0.2510924380555237,7.006601025846074,1.5830258435428561,1.693735584476999,1.592756700264473,0.5916656411835357,undefined,1493662194275
903d185fccf839df,6.672193869294509,0.7620564804335291,-0.06612044880653577,2.2755071140168606,9.755272706575028,-0.2518267758128804,-0.44477986492002747,4.5412434459303475,-0.3390996432696963,0.9299666454945372,0.7620130450229979,-0.023482820953533132,-0.7782489416221035,0.9106817165084989,0.5155588434618924,5.3295065524545535,1.3180890461429424,0.6099423873412394,0.2447603244751643,7.1504840977268085,1.6159106496863904,1.712748440430567,1.550934758016851,0.6852711787994011,undefined,1493662194741
903d185fccf839df,6.297969726689701,0.7579474923586488,-0.05208421095293197,2.228521195375677,9.717616783802864,-0.27278759956202153,-0.4593253228701088,4.338847645675676,-0.18613718362238088,0.8606786053754544,0.7406862300070799,-0.08010776459011501,-0.678155637254902,0.9356791979330384,0.5271377230350208,5.337588906107253,1.3677568827189492,0.6235455504267172,0.24651652496558887,7.160308305786917,1.6179990459315345,1.741789436733888,1.6407363950200184,0.8362896001251755,undefined,1493662196357
903d185fccf839df,6.297969726689701,0.7579474923586488,-0.05208421095293197,2.228521195375677,9.717616783802864,-0.27278759956202153,-0.4593253228701088,4.338847645675676,-0.18613718362238088,0.8606786053754544,0.7406862300070799,-0.08010776459011501,-0.678155637254902,0.9356791979330384,0.5271377230350208,5.337588906107253,1.3677568827189492,0.6235455504267172,0.24651652496558887,7.160308305786917,1.6179990459315345,1.741789436733888,1.6407363950200184,0.8362896001251755,undefined,1493662196376
903d185fccf839df,6.200948795814598,0.7714487204034713,-0.03421990823016351,2.3571806253640615,9.934408412262577,-0.20618999235965593,-0.45336092288592494,4.905100162725957,0.16025540202069372,0.9259585434540866,0.776512175495232,-0.15264720622445319,-0.0950033422459893,0.9810450877311144,0.5345061705517675,5.418413120987564,1.3859499297645625,0.6492003049039488,0.24062521053774819,7.313137871039056,1.654355983990866,1.7965812719991727,1.8994054301984418,1.0866159403384121,undefined,1493662197276
903d185fccf839df,6.200948795814598,0.8489347001554944,-0.10440122456665718,2.4358074579086013,9.925799265582622,-0.22635654445232128,-0.4731686220187294,4.792246057981735,0.27745513542304495,0.8515015559059622,0.7885245204059569,-0.15222838514255344,0.7710213346702318,0.9541959822664835,0.5324009250746414,5.580061776865958,1.3924237773845927,0.6583577423805442,0.2595026069130805,7.213740903919712,1.644079527664343,1.7806895323367187,1.8885726238894698,0.9622296114325546,undefined,1493662197730
903d185fccf839df,5.537047045752863,0.9475534536638263,-0.12035149485484331,2.4563740858142915,9.945414095342416,-0.19464395457921327,-0.4660523666443912,5.0149113537176975,0.05721343422116768,0.9619419697038009,0.777898532079038,-0.19755512216355114,0.9668560606060607,0.9412342254626073,0.5155588434618924,5.481052040149301,1.4730756426622482,0.6513155080091476,0.22926239171100565,7.051857048598767,1.5946913145503894,1.6354151341273384,1.9885752367094016,1.0645110257737032,undefined,1493662198777
903d185fccf839df,6.102541575598002,1.0444112790897633,-0.2109490300917405,2.5077141666278875,9.85349082631303,-0.1880918050005068,-0.48597840608194826,4.895344785612219,0.17688365900398956,1.0535265648639374,0.7961431288583615,-0.21079937930269826,0.9886154745989305,0.9810450618295654,0.5018746300648325,5.515402495408818,1.4730756426622482,0.6870396419036128,0.23809236785705856,7.065577058631515,1.610261895341968,1.6389818472549065,2.1465817485592624,1.0530961449109357,undefined,1493662200595
903d185fccf839df,6.102541575598002,1.0444112790897633,-0.2109490300917405,2.5077141666278875,9.85349082631303,-0.1880918050005068,-0.48597840608194826,4.895344785612219,0.17688365900398956,1.0535265648639374,0.7961431288583615,-0.21079937930269826,0.9886154745989305,0.9810450618295654,0.5018746300648325,5.515402495408818,1.4730756426622482,0.6870396419036128,0.23809236785705856,7.065577058631515,1.610261895341968,1.6389818472549065,2.1465817485592624,1.0530961449109357,undefined,1493662200657
903d185fccf839df,5.764353226660246,1.0761100889883182,-0.2109490300917405,2.4934497426814164,9.922569565998963,-0.1919234034989338,-0.48324340812283245,4.984942733471851,0.0765009101600415,1.055214261436497,0.7902585040470875,-0.21079937930269826,0.9886154745989305,0.9810450618295654,0.5124009457972681,5.481052040149301,1.4730756426622482,0.6888445305028594,0.23742767095223258,7.048962137246966,1.6063713006229303,1.6361262909818888,2.1584076885626993,1.071888382314568,undefined,1493662200733
903d185fccf839df,5.451114773350042,1.1565310268189788,-0.16373623003870957,2.5072941391606087,9.883442781786535,-0.15806558360897047,-0.45751601464993946,5.135182520359668,0.17142346665060568,1.3355565382910106,0.8127592865896172,-0.29700103627840185,0.2879623440285205,0.8940166339197926,0.5197693344161445,5.820514059211488,1.483882762120133,0.6721698885434634,0.2473421521418789,6.939417596692104,1.5811915182361234,1.6205801785814546,2.2587201617088626,1.161260631874216,undefined,1493662201772
903d185fccf839df,5.28063430953967,1.441820549729912,-0.141405851635249,2.5581614501590826,10.12804694076776,-0.18679441769834315,-0.4580340869797995,5.320394035872061,0.14358590636126953,1.4179940215210878,0.8452544193667646,-0.30231152088957475,0.6970393270944742,0.865315852611972,0.5060851210190845,5.834658404221484,1.504976098676941,0.6530887275990915,0.23767955660868953,6.9407418614657805,1.569258566570591,1.5939938800291824,2.362973032580578,1.2376071704245304,undefined,1493662202242
903d185fccf839df,5.1947020371368495,1.4735191258045282,-0.141405851635249,2.310697110515413,10.086575013765554,-0.15487685149415237,-0.4523484464573777,5.443003416598542,0.04227009137977933,1.4412018570220602,0.8583957411449793,-0.23486754147109776,0.9668560606060607,0.8514283485419227,0.5229272320807687,5.951853549715601,1.4770766146890015,0.65761678219001,0.2471112568140619,6.880010394994993,1.556462489200427,1.5148742130523718,2.3776323581048353,1.3212787438739158,undefined,1493662204182
903d185fccf839df,5.1849996680060615,1.4735191258045282,-0.11524740836262375,2.2671776083878115,10.174312006122811,-0.15395447366087264,-0.4467864068941576,5.539955798383111,0.1418246951145022,1.4095888585622571,0.8678028455206818,-0.2259540481104661,0.9755598262032086,0.8745741800248218,0.5271377230350208,5.871029447894176,1.483882762120133,0.6640130550937827,0.25102247406353906,6.926421311266353,1.5693510806489708,1.5253192264628719,2.4009227208868844,1.3851163806057492,undefined,1493662204297
903d185fccf839df,5.0755037893171835,1.456496041594916,-0.07058658802146524,2.099001597861406,10.187313126827343,-0.1971362378866808,-0.4648295064625131,5.3868859893337095,-0.2533308553719886,1.3245070112418107,0.8929058881181593,-0.23623964750728746,1.0103748885918005,0.8106916354010462,0.5281904341203894,5.913462143747506,1.425358521733241,0.6376680099716453,0.23139641842280323,6.789898695958922,1.5256367015483563,1.456670715802195,2.34074301499974,1.3812395807139468,undefined,1493662205671
903d185fccf839df,5.0713460254658145,1.45003899352755,-0.07058658802146524,2.0807154594855697,10.215300507882864,-0.1925383195030089,-0.46399322817543237,5.445602267765661,-0.32308838764649356,1.2842431383534147,0.8828962057930886,-0.24593849294759276,1.0190786541889483,0.7968041313309969,0.5281904341203894,5.927606375698616,1.425358521733241,0.6412524559933893,0.2322640229959794,6.78173751952237,1.5253198185518972,1.4458520165621451,2.3294470146957083,1.390679776710381,undefined,1493662205740
903d185fccf839df,5.0865924477894655,1.5204805594781778,0.0008707499380833294,2.099001597861406,10.107310977266659,-0.20632741571622043,-0.48714077852544346,5.161884787465092,0.5300429457213309,1.556887460936487,0.8956309284170342,-0.3154838441688255,0.727502506684492,0.7736582739465488,0.5239798842682669,5.905379563977035,1.4741974419094719,0.6511825112144598,0.2172418699275293,6.742486881743229,1.5133674154411674,1.448116133654388,2.5037270640204343,1.5327434672871478,undefined,1493662206708
903d185fccf839df,4.780283784927062,1.453560615868401,0.04361753784465951,2.0779606423968233,9.925932999999425,-0.23554073248345722,-0.5058597369947252,4.741086967346636,0.6809359188857929,1.636271718499502,0.8962524137179531,-0.3087903139459577,1.0625974821746882,0.7681032723185292,0.539769343142453,5.972059546906236,1.4956320466833242,0.612190577385861,0.2144081602440092,6.588964380239882,1.4680644492403208,1.3731208091166156,2.4945769253817724,1.514004752543082,undefined,1493662207063
903d185fccf839df,4.605645557265322,1.4042513560262044,-0.018907648753504824,1.9488301114908437,9.94923010162099,-0.22313753295296646,-0.5270507144188952,4.7930786672248695,0.39494790933380236,1.3715489296583905,0.8435023817762713,-0.24295395442373893,1.3976924576648841,0.7532899432776596,0.5071376848597772,6.0064101152246385,1.507206958806828,0.5787969657016362,0.20312230390232006,6.436088610941291,1.4198688996843962,1.3017559269545427,2.4723095095898295,1.5851932355827079,undefined,1493662208378
903d185fccf839df,4.604258715837272,1.3977943079588384,-0.057826371790916334,1.9488301114908437,9.874483946329764,-0.2068165538526463,-0.522835135538464,4.752801763152035,0.4933460437743583,1.4317712268405975,0.8335742510156201,-0.24280238018582995,1.3933405748663104,0.7338474116780416,0.4787166353270942,6.069049260504149,1.507935467367373,0.5704121495351291,0.1945861949019245,6.380207652834049,1.4043694981546961,1.27794313764328,2.4407035383090836,1.532116141925725,undefined,1493662209027
903d185fccf839df,4.367250165799101,1.4277321897749986,-0.12226540022095093,1.7995553849090453,9.761979007298947,-0.23615099233312187,-0.5471371735699576,4.437957621078304,0.23749413886366952,1.0953721792515343,0.800676516413469,-0.22758963065895618,0.5360196635472371,0.7227374343235513,0.4681902901457233,6.14785300003017,1.5425467588007602,0.5825714011299619,0.1931238620037027,6.360728617554009,1.4035048016990803,1.2709905103828316,2.4363436695325773,1.5188488547399959,undefined,1493662209795
903d185fccf839df,4.108065402989477,1.4118826679137517,-0.13183562592809997,1.7720425134802826,9.85246227809478,-0.2362092246486372,-0.546016875854102,4.517548915510251,0.3775763652812033,1.0744950433501197,0.8000027169220412,-0.28218250296900327,0.1878690396613191,0.7542157941500289,0.4871377055824039,6.14785300003017,1.6187946617015956,0.5898859516033329,0.18417494092301795,6.3719540823053915,1.405484261009549,1.2973460919169089,2.4875477770882353,1.5944684429799316,undefined,1493662210080
903d185fccf839df,5.308354575503986,1.2398869227282772,-0.15288998270850565,1.7454937850052126,9.638416927049377,-0.2384010384767485,-0.5447966468505597,4.195390525516207,0.439336138657408,1.1713835859322748,0.7289336551686619,-0.2830488393067177,0.2705548128342246,0.6820007211826747,0.46187452426541,5.968018596197658,1.5799691124448363,0.6206450594264554,0.18350324580650826,6.422491779317744,1.4238419300184928,1.2786626171093425,2.4456627101220323,1.670714653390728,undefined,1493662211160
903d185fccf839df,4.17736661998682,1.300349818270688,-0.1592700908237801,1.770634497107899,9.642994055731801,-0.2799872744621411,-0.5551344145449596,3.9748012372677035,0.6551003854707579,1.2363480861724416,0.7504126520449758,-0.26337116299490426,0.3445368204099822,0.6486707373161057,0.44608503594228877,6.224635811966359,1.64665373350543,0.6410688026919212,0.20779617390437866,6.3920952510492555,1.4286235365082254,1.247285931814838,2.518127596388953,1.697240833208827,undefined,1493662211571
903d185fccf839df,5.269545651067389,1.300349818270688,-0.1465098745932312,2.0032311942959993,9.547388498452376,-0.2564386666029251,-0.5418354846478435,3.9300756009913087,1.2602335296724758,1.5974192983290727,0.7839911283846759,-0.24791728370562086,1.0060230057932265,0.6634840663569751,0.5060850915701494,6.305459913787784,1.6361428755783576,0.667888820710406,0.25039275953702167,6.499052857777119,1.4621785442367883,1.3218560926579936,2.6645672783963597,2.0748352178510787,undefined,1493662212667
903d185fccf839df,5.308354575503986,1.1847075129048668,-0.154804015143088,2.105616761553816,9.749008744679792,-0.3075957474328484,-0.5504954346880769,3.984272780620108,1.088933781633999,1.5436324534370263,0.7899861302843544,-0.22116389818538665,0.38805564839572193,0.6514482122285664,0.44924293360691303,6.309501316731906,1.6407625242573716,0.6566225147111422,0.23437705745226256,6.433963627596747,1.4449078858581914,1.366335455052934,2.4484159561911163,1.949441021202498,undefined,1493662213083
903d185fccf839df,5.19747295956017,1.244583276537187,-0.154804015143088,1.9813496564866333,9.612599850540825,-0.29213425769588247,-0.5601152647929692,3.8508292712483,0.8192557412810876,1.3555453434185367,0.7010660410155104,-0.20410548835725434,0.17481339126559717,0.5681231619067219,0.46713757906035475,6.297377673193971,1.56334070488326,0.7186536973169667,0.26841654249575536,6.469534038489318,1.481306765183918,1.4758241160408079,2.5257368416563093,1.7807967561285503,undefined,1493662214360
903d185fccf839df,5.19747295956017,1.1465516549389458,-0.1465098745932312,1.9813496564866333,9.60821814376648,-0.29987431812047927,-0.5523915248839989,3.80979076597239,0.8677331853135677,1.2375132463012402,0.7108207178852928,-0.20948667335045318,0.14435021167557935,0.5542355801320253,0.43029554761916755,6.297377673193971,1.56334070488326,0.7079003592517349,0.251225377505,6.493817387779313,1.4763356989316507,1.4386510247791389,2.5442386858965045,1.8385436606794674,undefined,1493662214581
903d185fccf839df,5.331916525530376,1.0168212234421499,-0.10759115155581969,1.9133581055966236,9.5610273665782,-0.30877201348567235,-0.5680467598466362,3.6933591452403944,0.5006879526389331,0.8341183864697007,0.6461523924646686,-0.1775639710098153,-0.6389886920677362,0.5662714601619832,0.4881903577699021,6.277171676003336,1.5633772529028755,0.7317438934871588,0.2637426714170939,6.465869212700268,1.4786821693455876,1.447733277281159,2.5598244450953866,1.8580151906931062,undefined,1493662215628
903d185fccf839df,5.509326779788548,0.9029403138066008,-0.11779932454025882,1.8534755408572317,9.397968220455711,-0.29017769540829935,-0.5800991606432653,3.563423508503206,0.3087605578306462,0.5084734010913929,0.6658837756794338,-0.1204929893214903,-0.9262129567736186,0.5764556384472023,0.5113481758140292,6.317583557325719,1.5455399381411057,0.7275958157660339,0.275994086986888,6.479958785531424,1.4867015263672618,1.4539913730666274,2.4224384672572636,1.8248125092776608,undefined,1493662216112
903d185fccf839df,5.571697102164979,0.8330854121181863,-0.10695314074429225,2.1503466571496723,9.502419468585979,-0.2988517826343336,-0.5989285736159484,3.6390618051318238,0.3887262647084434,0.5464486296296126,0.6650976215564646,-0.011399516311736857,-0.8913978943850268,0.5838623418199607,0.5081903370472753,6.289295319541272,1.6426529189642727,0.7070200815422574,0.29251355617602276,6.493432418067664,1.4945917880997712,1.5388345209047654,2.230687570561654,1.816610424920298,undefined,1493662217138
903d185fccf839df,5.245983701040999,0.7972771464968736,-0.10695314074429225,2.1461782518181916,9.59958843390659,-0.3163886266712699,-0.6002434761334128,3.680528376231153,0.2758756882649614,0.5119191386963191,0.640328196444722,-0.0283308638362986,-0.9175091911764707,0.5949723968790983,0.514506161825459,6.289295319541272,1.6367913728829477,0.7220544912940658,0.31031344314416265,6.512649676692247,1.508526477761407,1.539221343239057,2.245942333651831,1.7670952975941687,undefined,1493662217584
903d185fccf839df,5.571697102164979,0.7415108385873113,-0.05017017851834964,2.2380758765860893,9.539190842758396,-0.2971770624250707,-0.5727698925386928,3.7206564969037497,0.2268414789331342,0.9252701386184149,0.6321510787277932,-0.0409563398156689,-0.9044535427807487,0.6329315315013178,0.5102956414222718,6.0346988052446315,1.7325167425186467,0.7674110338672537,0.2954872019057987,6.536039908149747,1.5141192628049298,1.6024990362870133,2.45188561774391,2.046520509753896,undefined,1493662218651
903d185fccf839df,5.571697102164979,0.7638176423398626,-0.10886723671311194,2.2050404879378305,9.757710476882801,-0.2568742355367314,-0.5506295554421805,4.262544319508274,-0.3158564720265785,0.6430701242703697,0.6035169271336521,-0.052152345591613664,-0.8174158868092692,0.6125631749308794,0.5060850915701494,6.056925277789555,1.661712508717687,0.7606347839663443,0.29878969688427287,6.592490610152044,1.5297636245072321,1.547424381328157,2.217663092426195,1.8415844071008642,undefined,1493662219056
903d185fccf839df,5.703368641538753,0.7890591703471129,-0.020183670376559715,2.1812460838396097,9.793257837909682,-0.22981080772415413,-0.5188194212547954,4.508472940878121,-0.8217294838028232,0.38837874104687714,0.6196925649403864,-0.0038911101097145817,-0.847879066399287,0.6310798815596772,0.5092429303369033,5.737669142859116,1.661712508717687,0.7971378722086981,0.341988008350183,6.517854344925808,1.5364816389400733,1.6062728394671084,2.178965228981601,1.6562766242655071,undefined,1493662220163
903d185fccf839df,5.703368641538753,0.7485552523887066,0.011078859388285095,2.18257818587832,9.82620293240769,-0.24020387228519952,-0.5125341849370637,4.513418430170863,-0.7571157677262801,0.5399396058788253,0.6252498552286316,-0.014389831561534503,-0.847879066399287,0.6218215282452784,0.514506161825459,5.677051038228326,1.6582939605861147,0.8027298612045387,0.35197945411080034,6.476494119299324,1.5347394940664,1.6296025879225333,2.1332072631017702,1.551177238533264,undefined,1493662220591
903d185fccf839df,6.1552100809302,0.5988660771318447,0.1827039582918799,2.2114205161290403,9.81886924984232,-0.24205561844601103,-0.49929048094541933,4.581297972942697,-0.9232794089334342,0.5359843736935828,0.6530667582821281,-0.05830424896035538,-0.7521376448306596,0.698665777869832,0.5292430863078875,5.646741872854045,1.661712508717687,0.8178465975354698,0.36805112823574815,6.4863337314725085,1.550637252191471,1.7109423115181428,2.0373773028527284,1.3787363894629718,undefined,1493662221702
903d185fccf839df,6.2591602501665475,0.5865391129072036,0.18653202316104456,2.2330488746670105,9.572094806799463,-0.2148827127854635,-0.4967369396871756,4.388518272987199,-0.8925412656801844,0.6696457044107323,0.6507617746491745,-0.05977940728077868,-0.6520443404634582,0.705146604468672,0.5176640594900833,5.632597640902935,1.716021842252264,0.8288089230797921,0.3800226716640939,6.537364180031523,1.567196798571199,1.7075041220497986,2.0700191656574343,1.393141123527527,undefined,1493662222113
903d185fccf839df,5.975027247989041,0.6276301627757007,0.1922741204647916,2.168357991155733,9.566015971906868,-0.24797887126408732,-0.4969368041611816,4.2726678340469,-1.404140846272843,0.4819740482735923,0.6588662966611556,-0.06506134889548594,-0.6041736296791445,0.7208857843819108,0.5250325070068299,5.367898184540421,1.7292226094903271,0.8030528401084822,0.3766012301850202,6.512172321585148,1.5540018836464293,1.7062480378517535,1.9386808528687314,1.3434831300229226,undefined,1493662223129
903d185fccf839df,6.242528642674515,0.6446532469853129,0.18397997991493478,2.2021377464063097,9.732201983276529,-0.22296517150601006,-0.48524994604599947,4.621885311822821,-1.5005890719127657,0.4451413174110176,0.6136913026445127,-0.04648004429322207,-0.6302849264705882,0.7125532042352339,0.5250325070068299,5.139569432673939,1.7258040613587555,0.784338991414446,0.3776787392435405,6.54517118644748,1.5564370978593354,1.7387290302568448,1.8128733151507086,1.2975624112570374,undefined,1493662223584
903d185fccf839df,5.981957590523397,0.6575675769439835,0.18461805426069958,2.1194559283667673,9.74516194484465,-0.22502421511662424,-0.4724533104436029,4.691507310833466,-2.2050624436040374,0.13573090052588244,0.6332084752661313,-0.04195517896575608,-0.7434338792335116,0.698665777869832,0.6429273433364898,5.161796131336635,1.754945307680195,0.7595265178815677,0.4263345611623944,6.67094568723727,1.597083345157127,1.8054744101334959,1.4090171781110377,0.9493200581262848,undefined,1493662224642
903d185fccf839df,5.631295950031534,0.6968976987300858,0.22034665970623651,2.139015488894757,9.559566809261776,-0.20105401444116663,-0.46070070776559036,4.548662291797224,-1.9045623285921587,0.26911642435785327,0.6507889732405816,-0.0419228718620797,-0.7913045900178254,0.7282923841484727,0.6502957908532365,5.262826569525353,1.6866842992686177,0.7593618626083152,0.42697826778751685,6.812134036886386,1.624036040618646,1.8718250215236387,1.2953959653701224,1.1073224936029011,undefined,1493662225061
903d185fccf839df,6.14689344905435,0.6446532469853129,0.22098467051776396,2.118901321954085,9.706868278748258,-0.22835968428852443,-0.452503602774873,4.638948687478056,-2.1493116989837047,0.23321503733929924,0.6805409980280778,-0.04602548548985967,-0.9131573083778967,0.7375506856597736,0.6808222036587862,5.109260267299658,1.6655355449577498,0.7613377391753415,0.4474089551559223,6.812442007572336,1.6383043311282088,1.9569244611144634,1.0304148018594104,0.9112472755315003,undefined,1493662226175
903d185fccf839df,5.999976591530036,0.6968976987300858,0.150803481249745,2.1031157881373854,9.62815183187292,-0.2075013474292022,-0.44662861710687246,4.621443011164985,-2.003418090709263,0.1918560867020767,0.6778923864956408,-0.039528882431892086,-0.9610280191622104,0.7727323971726304,0.7113484986685953,5.147651786326638,1.6655355449577498,0.7662331057508355,0.45822602448988053,6.755667938956095,1.6409734154079705,2.028883216304994,0.8127369108424568,0.6897409138195342,undefined,1493662226580
903d185fccf839df,5.950080112794269,0.710399160598847,0.1763239137108428,2.0803855291455586,9.630075230766224,-0.21239275152451378,-0.449258423320263,4.599214937589322,-1.9323151250967447,0.5657689351279246,0.6558229676229405,0.03140380402670148,-0.8826941287878788,0.7921749805753466,0.7197695983728402,5.117342847070129,1.6553660561870616,0.7712867950545443,0.465089896871343,6.735619163927392,1.6499275385152945,2.1102472012742166,0.6284068966922217,0.44152274385366574,undefined,1493662227630
903d185fccf839df,5.762968041491864,0.7444462643138262,0.1763239137108428,2.030303330245682,9.77855953787356,-0.21745651776263014,-0.444196046677016,4.752995034047244,-1.838877134684352,0.6563835164305425,0.6281947494316996,0.035540571303299295,-0.9523242535650625,0.8366150195010532,0.7124011508560935,5.089054270109023,1.6624402338990316,0.7852256038947005,0.4738079225752743,6.721575777910931,1.6572244336735458,2.1639154319976903,0.5802960304368197,0.2938028155849746,undefined,1493662228120
903d185fccf839df,5.700596614942322,0.5777335371994747,0.17632385017660546,2.010192878124487,9.834760605584727,-0.24977937003684753,-0.43025018665820697,4.6633266775154665,-1.7586970010184104,0.5741989583053926,0.6483248779821408,-0.04656057432901413,-0.8957497771836007,0.8903133599380606,0.7555590365243995,5.046621348137921,1.5940283861882796,0.8098037573820358,0.5154459444632868,6.813196528881754,1.700753779758135,2.241690010494853,0.24771990491292864,0.11040989402893271,undefined,1493662229203
903d185fccf839df,5.762968041491864,0.5260762173647927,0.23438289755984032,1.9450292714597979,9.690565409486009,-0.2683061397786926,-0.43720076402151486,4.392568801202735,-1.9809915356829955,0.6874849160052051,0.6284931249081359,-0.046384848013763746,-0.9001016599821747,0.8532799725820142,0.7334537528720299,5.0304565277736355,1.5464562045396768,0.8240022173835817,0.524919626402542,6.893129859933854,1.7275729669440003,2.2108584199434866,0.04943625536490095,-0.05248757315058867,undefined,1493662229702
903d185fccf839df,5.848900313894685,0.47852788560499093,0.14314735151141567,1.8519099819020726,9.542903938904738,-0.25189431950941815,-0.4509020536848935,4.232110114950038,-1.8543449783437733,0.47014191289147816,0.6131947137850894,-0.04781233181850253,-0.8348234180035651,0.9430859013057968,0.7524011683087104,4.830416465927147,1.7144490445725615,0.8381436790815416,0.5257102656706998,6.884198762598144,1.733537983938166,2.3174904346002365,0.06071769831066916,-0.14226286361010232,undefined,1493662230772
903d185fccf839df,5.762968041491864,0.4808759455974765,0.150803481249745,1.815044565212863,9.705438527279602,-0.26038672671703894,-0.44516118748614547,4.414583261493714,-1.822140772808506,0.40465118977398085,0.6069837252552064,-0.04968388424760327,-0.843527183600713,0.9773417878478334,0.7524011683087104,4.830416465927147,1.6497642354922428,0.8403475435477139,0.5285719608115447,6.904694095412261,1.7410049483210939,2.3164702996760806,-0.0006657884802413632,-0.20904653597133932,undefined,1493662231482
903d185fccf839df,5.442798693560747,0.4714837056275343,0.23884897324053242,1.8440249831739726,9.714551658284577,-0.2751937013341878,-0.4446746737144307,4.333506609121262,-1.7657755667909703,0.3888840505489574,0.629188318080192,-0.007359182461763754,-0.8870460115864528,0.979193437789474,0.7345063756105928,4.7617157815258855,1.5410606005948138,0.8529501008345439,0.5469595801441247,6.945530778066886,1.7637659257667477,2.3153036015755393,-0.19478258028781933,-0.48226981478446845,undefined,1493662232197
903d185fccf839df,5.2002460903297125,0.4309797876691279,0.14250934069988822,1.8232666957979213,9.419691587378386,-0.2789857018766203,-0.46270725413440184,3.896543306935379,-1.7585979153501041,0.2857601848740142,0.5896037656084571,0.007674367433067033,-0.8870460115864528,0.9282725204618292,0.7271379280938461,4.69907708848192,1.4727697421497226,0.826858372750809,0.5493175055380234,6.954200105209051,1.7552425067397988,2.318743115424724,-0.1729629236661921,-0.48312654360702095,undefined,1493662232563
903d185fccf839df,5.47190469678,0.2865740981312666,0.139319286642251,1.8232666957979213,9.737622470694289,-0.32677237080526167,-0.4716065176155967,4.025690452840638,-1.4924895587698843,0.24573002035292155,0.5469282312023689,-0.020592136080522114,-0.8609347147950089,1.0014133924984545,0.7976643583520129,4.402047199978633,1.3468098621015374,0.8123559310374983,0.5767799881372253,6.990232469330387,1.7683316541627876,2.43378293279525,-0.4456058587593529,-0.7217889684975215,undefined,1493662233633
903d185fccf839df,5.1697532456824105,0.3869535458980545,0.09593442438991001,1.8136057239582564,9.634672916482987,-0.32396563702993325,-0.4662811608878657,3.88935129423196,-1.4399095732449012,0.32178495040643607,0.5362801881327276,-0.01076202944650346,-0.8130640040106952,1.0014133924984545,0.811348601198008,4.434377292942748,1.3525817465107428,0.804332092023886,0.572239057896613,6.904955876214108,1.755266694621158,2.458106171664259,-0.5113274585632235,-0.8874627783378499,undefined,1493662234064
903d185fccf839df,4.809389788146315,0.32062096802230705,0.037237429729385055,1.8159396947255344,9.771133249299798,-0.33687661323146195,-0.4781389566619244,3.9177428133384233,-0.9780987558477835,0.1401533670024449,0.4879364640553725,0.02793559389251258,-0.7869527072192514,0.9921550132825065,0.7545064432347717,4.406088376804983,1.336710107377584,0.7542385057861288,0.5294535601748329,6.868338370115754,1.719392182187841,2.371291497271775,-0.5691709433072324,-0.9067526960403351,undefined,1493662235155
903d185fccf839df,4.809389788146315,0.3077066380636366,-0.006785379800246012,1.8384628992803052,9.721011049257765,-0.3266093265380658,-0.4728951235796859,3.887014979598828,-0.9971110659163016,0.15474600774805292,0.48219188182620376,0.03122091769402645,-0.7695451760249554,1.032891700521834,0.7429274164169674,4.317182034389745,1.3267704345083253,0.7378045164173137,0.5225756954562,6.777117980315087,1.6882557385531556,2.377490675343942,-0.48656263536029787,-0.772148075895543,undefined,1493662235680
903d185fccf839df,4.9992733339585955,0.2525269944162874,-0.0476180717380025,1.8159396947255344,9.748926446892302,-0.3488325990350795,-0.47872277329273416,3.8186916271388975,-1.2258891991567953,0.17096244454690113,0.43873338563254116,0.03620898732601581,-0.9479723707664884,1.0773317653490897,0.7450327796898341,4.416191997224174,1.402476470205549,0.7188120200174983,0.5155019185588083,6.742178906453167,1.6756226310425182,2.3627046004586645,-0.48257818441462497,-0.7449723477052236,undefined,1493662236663
903d185fccf839df,5.1794556148131985,0.34997148410443774,-0.1394917556664293,1.8069638400796275,9.733590479327695,-0.3478356856193127,-0.4871434120361523,3.7998793088363607,-1.0456671209376966,0.29205276360794646,0.4339164458938319,0.01755512839306338,-1.0045468471479502,1.0541859597677399,0.7334537528720299,4.507119380288131,1.428466549399657,0.6910610606570667,0.4922515172451393,6.855557656598964,1.6891998535038488,2.336826958471242,-0.5812073979785225,-0.8555253762336319,undefined,1493662237054
903d185fccf839df,5.029765626519342,0.5272502473610354,-0.09036492317881603,1.7755189546263284,9.948787809908582,-0.35312073168743313,-0.4820152897825533,4.060919452734006,-0.948291764723718,0.31954665229510376,0.4181665528575159,0.04409389323940878,-0.9740836675579323,1.021781800871991,0.6639800631481668,4.589963731346073,1.4544900407882382,0.7405846802696383,0.4768025594717275,6.808238241214107,1.6875300857204047,2.2514497409261747,-0.3417324057600783,-0.9555009253752536,undefined,1493662238148
903d185fccf839df,5.029765626519342,0.5178577735671546,-0.01763156359621258,1.7755189546263284,9.96682892545482,-0.3383766478597047,-0.4758352460125558,4.154657488200453,-0.9401257707788708,0.418349093891724,0.4212598351031985,0.04368106100038394,-0.9305648395721926,1.0273367506969124,0.6576642678189184,4.640479120028761,1.4544900407882382,0.7583802519255964,0.47792904595558483,6.777071789246301,1.6892807809566475,2.251873761242529,-0.3913666005768493,-0.9383605219902309,undefined,1493662238598
903d185fccf839df,5.437254640367884,0.529011409267369,-0.09610695694832569,1.7855921752544153,10.123809251024452,-0.35042114281193015,-0.46831399919031746,4.343821029793083,-0.9471558160598533,0.29309893984174273,0.4421026348916839,0.13011949036099954,-0.6302849264705882,1.0236334767151807,0.6397695045697359,4.844560358701599,1.490764289724297,0.7229284330977498,0.45888372487744894,6.7051610556086745,1.6600299536089609,2.2105425475085925,-0.3811765642594845,-0.9802711609400544,undefined,1493662239676
903d185fccf839df,5.336074841468301,0.519032037387336,-0.1962747178923719,1.7907211694729257,9.829278326200475,-0.34670600755283654,-0.48747739457589545,3.9277832634859617,-0.8842809813370945,0.23885197505511455,0.45096500315557775,0.13170207649864166,-0.5737104500891266,1.0236334249120824,0.6302958115758632,4.844560358701599,1.5005653286136635,0.7380008386402295,0.4706943419798354,6.719558600633562,1.6686642278197283,2.203523522082856,-0.3849649509165235,-0.9377927519666004,undefined,1493662240094
903d185fccf839df,5.376269503159835,0.40984701391281925,-0.18989460977709746,1.5899344167781146,9.873013104350571,-0.3632389444324606,-0.4848423269878845,3.9171735924526887,-0.9179952885698428,0.4385373222219197,0.42360596098068515,0.13894618099628014,-0.14287405303030304,1.042150079737782,0.6302958115758632,4.834457755812383,1.4655275585245768,0.7303379760708186,0.4517959551596388,6.62285636333858,1.6370589577979575,2.1920960808136565,-0.3543177800995297,-0.8551234877550901,undefined,1493662241124
903d185fccf839df,5.769897279853109,0.4597434056651065,-0.14714788540475865,1.5899344167781146,9.917642743418387,-0.3690876635236456,-0.4944674169615844,3.9656211664033183,-0.9547455028998159,0.38783625329981525,0.4756943471041756,0.14112194677934667,-0.2168560606060606,1.042150079737782,0.6302958115758632,4.9516529013065,1.4655275585245768,0.7233780707091414,0.45436378501441305,6.601745093245104,1.636635685058363,2.1387802806593514,-0.43895342486599237,-0.997804552074899,undefined,1493662241587
903d185fccf839df,5.708912694731616,0.6417182889066754,-0.15288998270850565,1.7907211694729257,10.014348871259186,-0.37039902578362677,-0.4877929681763181,4.0841789891574285,-0.6797796445055873,0.5601856183343745,0.4954218753103451,0.07663910327768647,-0.5998217468805704,1.0393726048253213,0.5924010101514372,5.032477229245697,1.4471813323152014,0.7299896620258722,0.43165213640711986,6.628045646198595,1.6425675144413,2.1269531768675205,-0.47337569849058825,-1.1014505470127078,undefined,1493662242702
903d185fccf839df,5.729702618161575,0.5724502853044129,-0.15288998270850565,1.7968379035229345,9.868034827728147,-0.3571386672864822,-0.4859336950324768,3.9329150377436846,-0.6411886425377227,0.7080178750141914,0.5104697923287567,0.07001878680838695,-0.8087121212121212,1.0754800895059002,0.5924010101514372,4.941549733122853,1.4448585801291227,0.7592161988853792,0.43517153263899505,6.612200649159558,1.6486506382159671,2.14300520225524,-0.3958187188487457,-1.1396834909127245,undefined,1493662243103
903d185fccf839df,5.879392606455432,0.649349366970284,-0.057826371790916334,1.8805727192374269,10.16116689706671,-0.34377116388951223,-0.4709464311643924,4.45772154576988,-0.7029053209003662,0.7153815642192464,0.5765411709374029,0.011797584093109827,-0.865286597593583,1.0967743228502569,0.5808220422315032,4.89103479667571,1.3389269674560682,0.797644500898327,0.4508164033007447,6.716894677231408,1.6900242996059938,2.213861265516355,-0.6323125113356488,-1.218214557916118,undefined,1493662244157
903d185fccf839df,5.789302018114686,0.7867111103546274,-0.09227895561339837,1.7968379035229345,9.954486094866185,-0.35333734886844054,-0.48488440366325997,4.126112344702479,-0.5811689011585308,0.786055850969633,0.6182026831641894,-0.058555291303811395,-0.865286597593583,1.1060326761646557,0.5618746267948227,4.933467379470154,1.3573014886674832,0.7989174234467393,0.45549727046846966,6.729613796858714,1.7040161728095007,2.224076590562308,-0.8152431042640652,-1.5303657011705964,undefined,1493662244581
903d185fccf839df,5.609119737260082,0.8242800702343962,0.06084376622166317,1.8216170474708753,9.929111286511908,-0.34427195261774235,-0.4743283621831724,4.146097633814411,-0.5928005854274683,0.8153662763432736,0.6540077214438641,-0.016649668789481036,-0.9392686051693405,1.0680734638377891,0.5555587725677038,4.814251645562862,1.2949423135570712,0.7945856904364832,0.45511244609658374,6.636006654596942,1.6835284325001987,2.2142914070717485,-0.8378906130314709,-1.5797413039864399,undefined,1493662245662
903d185fccf839df,5.818408021333939,0.9088104637878147,0.08189812300206886,1.8805727192374269,10.04970079603825,-0.3440646496011519,-0.46644157432851585,4.348133135020743,-0.6737203690665969,0.8299251016389793,0.6759384314866458,0.004784848632068124,-0.9392686051693405,1.091219295320688,0.5124008868993978,4.630376630198431,1.3373373832236652,0.8020902294305693,0.44199342546424863,6.526800880299616,1.6521006370501257,2.241272751133521,-0.6665501343006079,-1.3777670521990364,undefined,1493662246069
903d185fccf839df,5.171138982937348,0.9223116918326373,0.10869470415469626,1.819347774159526,10.073357896706069,-0.3630432917757248,-0.45060225208408533,4.314801451906504,-0.6455940763464291,1.0334549923809275,0.6820223344399049,0.016289543733655657,-0.852230949197861,1.0977001478210773,0.450295556345476,4.571778887863044,1.3307421049617156,0.7974291826182487,0.42076510144792184,6.4676400544027635,1.6366805814672754,2.167173301522558,-0.76771263517935,-1.5486709313888327,undefined,1493662247138
903d185fccf839df,5.182227089323074,0.9223116918326373,0.10359061766247671,1.8775325837925128,10.071619609451409,-0.3683958838598779,-0.45475208587792537,4.268434580490908,-0.533861288084101,1.0380621358839477,0.6843647736991089,0.02622328520039509,-0.8696384803921569,1.0939968479377962,0.4345060091244845,4.521263499180355,1.389830261853958,0.775884508532278,0.4014678971112166,6.460356589962452,1.6163383547219938,2.142278824439431,-0.6087917305477518,-1.3982338824903078,undefined,1493662247673
903d185fccf839df,5.53981962443585,0.7867111103546274,0.11507481226997071,1.9100368574424396,9.815248604015819,-0.36133595830598214,-0.44641297156564114,3.9551356783741323,-0.565653676877872,1.0407850460542782,0.6549313868353128,0.04624227532830597,-0.7564895276292335,1.0708509387502498,0.36187436283812696,4.274749451595301,1.2383293088712097,0.7471646079863886,0.3754257681721147,6.383040994070805,1.5767869567394595,2.048170202843955,-0.5164335773021882,-1.3216616317873486,undefined,1493662248623
903d185fccf839df,5.682578166022239,0.793168392245932,0.0978485203587297,1.928361245775997,9.958908938243072,-0.3935190556671877,-0.45381850597568163,3.9859339912595124,-0.5399655699115076,0.8428110079262967,0.6549576765394224,0.018091222952314738,-0.7086188168449198,1.0208559499996217,0.36187436283812696,4.355573892593384,1.1522349990480063,0.7242520177505114,0.36871582666983954,6.342296710516261,1.561701974390487,1.9759034807931992,-0.6869344780915707,-1.4081661268773427,undefined,1493662249170
903d185fccf839df,5.762967489405308,0.6974845968162378,0.07488000407526696,1.89206356755001,9.58252443199782,-0.3823550097316485,-0.46422990839620887,3.486948567528634,-0.31754979766543495,0.8200310179332011,0.665676982066366,0.04459062069380355,-0.8783422459893049,1.0106718235175007,0.36187436283812696,4.222213361440551,1.1291985519445875,0.7096799141716593,0.3601727210359621,6.347131820367049,1.5488500052232856,1.9583366663691897,-0.7170315294598817,-1.291717600468797,undefined,1493662250170
903d185fccf839df,5.762967489405308,0.4920293474737522,0.053187700017571185,1.7929391298232225,9.550885625898967,-0.39389871827513845,-0.4570847251837705,3.3761230493709595,-0.27129679142762103,0.8903312125954637,0.658025898236253,0.00856815059543743,-0.8783422459893049,1.0097459467435823,0.3660849126902494,4.222213361440551,1.1145038318871656,0.6943478561500634,0.3572690453907637,6.370306482069554,1.5474237057828353,1.9520872585068747,-0.7272112072589624,-1.331008639457713,undefined,1493662250606
903d185fccf839df,5.667332847871699,0.4920293474737522,0.08700220949428841,1.9969177396398745,9.460536052646335,-0.40105181284324426,-0.467180551716513,3.172977130305053,0.021954262875490516,0.7494643997264478,0.6810546393139016,-0.0781300097210564,-0.6868594028520499,0.9875259402315035,0.35555862640674885,4.377800252079421,1.0689211763981734,0.6680344756189697,0.3354250017726071,6.252354383758337,1.5107839309113267,1.8605883715165243,-0.7106842967505197,-1.3414024168548044,undefined,1493662251759
903d185fccf839df,5.667332847871699,0.5237281573723072,0.08189812300206886,1.9400429307133595,9.480942868016689,-0.39398723020714005,-0.4657762356194043,3.252014371122006,0.02575329620200462,0.6162930200453958,0.6859003284157508,-0.024810656206956997,-0.6825075200534759,0.9634542578762351,0.3629270444745603,4.400026724624344,1.058601817835308,0.670630982537774,0.3426946876556515,6.280579733359406,1.5196612061256163,1.8637124119590187,-0.6983493745915615,-1.3627168508662302,undefined,1493662252236
903d185fccf839df,5.762967489405308,0.5207929654697309,0.10869470415469626,2.0750230997557715,9.506739414121839,-0.382129073747234,-0.45512289209859796,3.356701918089585,0.059294455710072275,0.46048770273569106,0.6820605623800707,-0.01894515288392765,-0.6825075200534759,0.947715000258349,0.3597691468099361,4.490954107688302,1.058601817835308,0.636889059211516,0.3333679397296534,6.270247379763213,1.5039476351665915,1.7938864098486673,-0.6640325227238268,-1.376612366234559,undefined,1493662253330
903d185fccf839df,5.934833138384062,0.44213295572146494,0.07360398245221207,2.1255920775960933,9.568340453187096,-0.3916836120774995,-0.4545101476296881,3.4080334941933565,0.009347167257793445,0.4722848063034103,0.6697157534486007,-0.06018420497166604,-0.6041736296791445,0.9143849904902308,0.3502954243671282,4.426294713172276,1.0626731271328935,0.6312020752023315,0.3247058875829423,6.277099686707891,1.4999106674379865,1.7976324180438286,-0.6343284454512239,-1.3240449657589664,undefined,1493662253936
903d185fccf839df,5.640997767075766,0.48498516749629556,0.06594785271388273,2.0750230997557715,9.697796233132484,-0.4167369115311923,-0.4458396780155144,3.485644341618022,0.06591675381871016,0.33831701571999423,0.6660785049226989,-0.08076918647764324,-0.678155637254902,0.8560575511006713,0.35345332203175245,4.630375951845114,1.1188650700884966,0.6154203803776972,0.3271477739733136,6.196950776409869,1.4800995148677274,1.7800357740505817,-0.5209263242010553,-1.2185650551613667,undefined,1493662254821
903d185fccf839df,5.663173979847218,0.44448124953788914,0.02192504318425166,2.0277423313491427,9.42082298222433,-0.4118035834902269,-0.4506127758849396,3.116656439749002,0.07767658174091231,0.26353080926715083,0.6442733203129524,-0.07822108892264142,-0.6563962232620321,0.8560575511006713,0.3502954243671282,4.62431418660559,1.1818758929964857,0.6144831044698298,0.3217602297328474,6.1679709016222395,1.473659624443889,1.7818096160271069,-0.5300580271246964,-1.231405457542339,undefined,1493662255067
903d185fccf839df,5.663173979847218,0.4573955794965597,0.0244771499645988,2.052693087719215,9.383280187669824,-0.42014924737812864,-0.45524649430173186,3.025441472392913,0.11000371429425712,0.26634061103837947,0.649316326593797,-0.04207368542462784,-0.6955631684491979,0.8560575511006713,0.3502954243671282,4.62431418660559,1.1188650700884966,0.6195114615835791,0.3265040676907465,6.16176532725926,1.477310234792185,1.7823853267624914,-0.5325907891644321,-1.2812078296184715,undefined,1493662257037
903d185fccf839df,5.663173979847218,0.4573955794965597,0.0244771499645988,2.052693087719215,9.383280187669824,-0.42014924737812864,-0.45524649430173186,3.025441472392913,0.11000371429425712,0.26634061103837947,0.649316326593797,-0.04207368542462784,-0.6955631684491979,0.8560575511006713,0.3502954243671282,4.62431418660559,1.1188650700884966,0.6195114615835791,0.3265040676907465,6.16176532725926,1.477310234792185,1.7823853267624914,-0.5325907891644321,-1.2812078296184715,undefined,1493662257067
903d185fccf839df,5.588329813830123,0.421587313875247,0.01171687019981254,1.996242706020459,9.357658506438417,-0.4423329207594006,-0.4589965976335634,2.9130559227381077,-0.0017455486258236552,0.059295336979207525,0.6757949642800645,0.003077272374655797,-0.673803754456328,0.806062536448494,0.3387164858961294,4.670788285403042,1.1908911182949953,0.6054903239551702,0.3304292778401639,6.160102298193543,1.4784254349711312,1.7017356020684757,-0.5157388375774222,-1.4437047599388069,undefined,1493662257613
903d185fccf839df,5.659016768082405,0.4045639958416961,0.0244771499645988,2.0117845965873506,9.350304250450444,-0.4446015989430531,-0.47011015780802945,2.853139023975485,0.2708542370801276,0.032628682398266835,0.6808462711490452,0.0714840931613057,-0.691211285650624,0.7782874765052974,0.33555855878257,4.713221094315259,1.2515223155336166,0.5892843217768072,0.3200390129970702,6.111273826835244,1.4614694065938072,1.694516008746137,-0.5187738804714203,-1.417397966053001,undefined,1493662258123
903d185fccf839df,5.555065494672945,0.3399921122244048,-0.057826371790916334,2.003952232150729,9.296880342821362,-0.4320702904523644,-0.4508994241105752,2.8057234639528743,0.4912723817910378,0.19771554085641302,0.6717476541748857,0.06704058529498429,-0.6825075200534759,0.7847683290056864,0.3429270946461222,4.70109756383621,1.2185125024263195,0.5865864885564448,0.3122585589841181,6.15445106862052,1.464245755458456,1.6889613634220948,-0.4378884768969305,-1.2509569372163987,undefined,1493662259244
903d185fccf839df,5.589716103171617,0.36229891597695624,-0.07377664207910246,2.0148423788327223,9.224181045395875,-0.4248799271652168,-0.459696126124167,2.7414558013383052,0.5831244953779239,0.15214102287731515,0.6662397119756018,0.06540877340955993,-0.673803754456328,0.7819908281916765,0.3502954243671282,4.769798474355244,1.350892525616579,0.5670240260851108,0.29128211949870897,6.207498713088741,1.4665314395870475,1.6859052436235678,-0.43067001409376404,-1.206973230537283,undefined,1493662259597
903d185fccf839df,5.556451784014439,0.3810833959168406,-0.07377664207910246,2.0148423788327223,9.280659806171673,-0.4361208358326506,-0.45859160736003346,2.7786596656662295,0.5541544349727757,0.09661138477973152,0.6758127091255725,0.08383167733897552,-0.673803754456328,0.7819908281916765,0.3502954243671282,4.769798474355244,1.350892525616579,0.56777131369373,0.2894279644389948,6.208822978724006,1.4665863095306098,1.6881345161813703,-0.4325038507596105,-1.2053791446552782,undefined,1493662261464
903d185fccf839df,5.556451784014439,0.3810833959168406,-0.07377664207910246,2.0148423788327223,9.280659806171673,-0.4361208358326506,-0.45859160736003346,2.7786596656662295,0.5541544349727757,0.09661138477973152,0.6758127091255725,0.08383167733897552,-0.673803754456328,0.7819908281916765,0.3502954243671282,4.769798474355244,1.350892525616579,0.56777131369373,0.2894279644389948,6.208822978724006,1.4665863095306098,1.6881345161813703,-0.4325038507596105,-1.2053791446552782,undefined,1493662261484
903d185fccf839df,5.592487577681493,0.3399921122244048,-0.07696669613673969,2.090486817547617,9.334947727900035,-0.4408119236944316,-0.45862053591830476,2.8327508311764347,0.5686192694190462,0.1253950121866723,0.6433185801598166,0.08172392434348623,-0.5954698640819964,0.7755099756912875,0.36924289870167915,4.828396103631745,1.3350454974004125,0.5867511467419835,0.29833490445867356,6.143641360051849,1.4643768327471718,1.7071149393000549,-0.4169949044022226,-1.325930896948937,undefined,1493662262158
903d185fccf839df,5.505169015937178,0.33764405223191923,-0.10886723671311194,2.1039413674222684,9.124245228214086,-0.43835224668895856,-0.4682009188403021,2.562706846800597,0.5372960201609452,0.08592942495432755,0.6432872846346995,0.06015308617971256,-0.691211285650624,0.7782874765052974,0.35345341037855793,4.725345077029852,1.282805922597343,0.6068265785093693,0.3073607900369247,6.20278678757057,1.4830085034000702,1.681578601637097,-0.43208628247297526,-1.3328568947217077,undefined,1493662262575
903d185fccf839df,5.488536304272034,0.3352962260633724,-0.20903506119139553,2.113083532516825,9.185362842037193,-0.4299693119944695,-0.464308804378292,2.674807212631362,0.779218657684374,0.3415811572784345,0.6094062469039356,0.05414604888131713,-0.8000083556149733,0.8393925462166122,0.3429270946461222,4.828396103631745,1.2191736598985916,0.6222852912409401,0.30625529380830263,6.202971574839341,1.4886376363599825,1.7166257398778373,-0.3241023965936681,-1.3096739603584853,undefined,1493662263830
903d185fccf839df,5.488536304272034,0.36229891597695624,-0.1816005962957154,2.1401227120584676,9.200626813889613,-0.45007996332806743,-0.47292404867622506,2.614457840231796,0.7685539071966578,0.328783760717991,0.6256046543608841,0.03820028837564838,-0.8000083556149733,0.8079141086854872,0.3545060036681858,4.8910349097345955,1.1995697327023795,0.623298561697803,0.3147634160790244,6.198244251993096,1.4939952377532324,1.6877423996517058,-0.4288121075982845,-1.4350221779456376,undefined,1493662264087
903d185fccf839df,5.690894797898089,0.39282369587926835,-0.14395789488135877,2.123896377703007,9.296036932872692,-0.4414431427335294,-0.4574923479736818,2.7981904623716045,0.9233298368631824,0.22243795460432184,0.6727822255539947,-0.0644660198488637,-0.6563962232620321,0.7569932949640388,0.4460850064933536,4.866787396540953,1.2052481515105269,0.5988913969976742,0.32914186259575673,6.118033746903615,1.474808621412868,1.6672559534424816,-0.34536620214896757,-1.5311368233866707,undefined,1493662265106
903d185fccf839df,5.682578166022239,0.39282369587926835,-0.14395789488135877,2.2320532199216405,9.339936294306561,-0.44504880571144073,-0.45410252751177566,2.834686191016238,1.0168583669845583,0.42885563478154987,0.6791115340908261,-0.11021342077667504,-0.39528325534759357,0.7375507633644208,0.3818744599112409,4.85870515594714,1.3057339253894826,0.5720080497971021,0.3083963179671511,5.9668980027616545,1.4256024172411759,1.654314688133816,-0.4439824281895431,-1.324639203672284,undefined,1493662265571
903d185fccf839df,5.682578166022239,0.41160817581915277,-0.11014332187040418,2.2708506000120057,9.355447134939045,-0.45545817655480175,-0.45573826565898407,2.817625908152778,1.0246223557938998,0.5197926134199133,0.7077919664521488,-0.13936053958905312,-0.051484514260249546,0.7403282641784307,0.36924286925274397,4.705138966780331,1.2809614277649137,0.5562896820727687,0.3207736768056021,5.916776065809162,1.4134255720420354,1.628267358552744,-0.4745338196280382,-1.3949436924985381,undefined,1493662266766
903d185fccf839df,5.88077834371037,0.5818425252743551,-0.0425140487800203,2.2753669637104306,9.247642746689486,-0.43217743233684625,-0.4457686709077856,2.8364156754727285,0.9498154498309278,0.5485703294904742,0.7262088057202907,-0.13439517738666387,-0.2734305369875223,0.7532899950807578,0.3629270150256252,4.745551300338259,1.2913256109099809,0.568163952259622,0.3069899602961072,5.855012898014314,1.3980857291634492,1.6194726354465971,-0.4380071969120107,-1.3237686021243171,undefined,1493662267060
903d185fccf839df,5.638225740479335,0.3810833959168406,-0.23264146121791102,2.131625741642125,9.003048879540897,-0.4587820016294839,-0.44921634703770813,2.378981023922451,0.5490003453568626,0.9067238221773176,0.6956945244457592,-0.12262729994611171,-0.5388953877005348,0.729218209119293,0.3429270946461222,4.69907708848192,1.2832257799909625,0.5535665161253902,0.31174779166166233,5.677453420571089,1.3486981370796391,1.5855299996485315,-0.2626489751117496,-1.0536357077637344,undefined,1493662268097
903d185fccf839df,5.419236191447802,0.4057380258379389,-0.147147948938996,1.9669351320066029,9.160101186482976,-0.5401632880641275,-0.47880692467529,2.232807572566483,0.5469895127590672,1.0121650389589043,0.754392095030233,-0.11131962222745836,-0.7086188168449198,0.6236732299900171,0.3555585675088785,4.169677836580234,1.1627725267202962,0.48496173693046657,0.2877837136933468,5.4943351029620615,1.2867901541408695,1.4730224099291656,-0.5984624411523348,-1.1248841514549093,undefined,1493662268548
903d185fccf839df,5.969483194796178,0.49261624555990424,-0.03102985417252628,2.316935447323149,9.448100697990645,-0.48192065972590387,-0.4541498656722523,2.9876936373208167,0.8003304472520937,1.7065447075098654,0.8995456534090287,-0.04057711066015505,-0.9914911987522282,0.6218214764421801,0.3334532838565088,4.13128609143548,1.1786753701972243,0.4458874743855915,0.23912789343833352,5.339934886554613,1.2390273882692981,1.3210003169660975,-0.370837316933672,-1.254344790017048,undefined,1493662269573
903d185fccf839df,5.699210325600828,0.39751981586423946,-0.008061337889063547,2.2525186073091907,9.081323009097156,-0.4708847253020071,-0.45335040417537187,2.4740416714802915,0.5605219056864342,1.7965122840659484,0.8961520707206424,-0.0019470702312390478,-0.9914911987522282,0.5727523126623723,0.41134810273355177,4.8869937329082465,1.2759237210988268,0.4553172284070947,0.247712980549177,5.466017356603351,1.2617076691166085,1.4047061846164484,-0.11706832548635421,-0.9626685000916333,undefined,1493662270040
903d185fccf839df,6.084523678764475,0.4544603875939834,-0.05718829744515153,2.273467142995708,9.506204576832776,-0.4015269679036203,-0.4160281995548933,3.4663279653212378,0.6071005122029802,1.7926057704901264,0.9682705009060907,0.014840380119868827,-0.9784355503565063,0.7727323971726304,0.5418746180685142,5.200187989540274,1.4650988916905465,0.5310402348614104,0.29638279773527376,5.816408982289344,1.3883667850264296,1.691848535542986,-0.04131911008028293,-1.304242830096322,undefined,1493662271078
903d185fccf839df,6.096997522405139,0.6252821027832152,-0.14395789488135877,2.206479271220748,9.569142755212697,-0.3460491474235003,-0.4251825525153519,3.8116786944092085,0.6233808168161624,1.4555904470768466,0.9116576429714711,0.019177629598901617,-1.02630626114082,0.8421699434244256,0.5797693900440051,5.493175796746122,1.4941993234492228,0.627275647625312,0.3494046291518096,6.000666774670429,1.479890492137851,1.7127740799344953,-0.2556946646765049,-1.1416623549645983,undefined,1493662271551
903d185fccf839df,6.03185462134572,0.580081831015899,0.09593448792414737,2.389605332255919,9.995875760954505,-0.29241842251656963,-0.32661216187195063,4.670238653956557,0.5470617384103597,1.6977402952255571,0.781894566278283,0.030951705234143624,-0.9784355503565063,1.0273367765984616,0.47134818781034754,5.218372946082189,1.5539526037505385,0.7921475012961149,0.3356489019044515,6.246041010894004,1.5575580665775601,1.704583405999386,0.23921298020372056,-0.6529879295519161,undefined,1493662272917
903d185fccf839df,5.627137634093609,0.48322400558996204,0.03404731213751048,2.3207651265137046,9.922415318591296,-0.32294310038403984,-0.3457781877156933,4.424378156858368,0.26879457832136144,1.5077235594297866,0.728585239836769,0.013490817622393946,-0.9784355503565063,1.0328918300295795,0.5113482052629644,5.218372946082189,1.5598015705811978,0.8025145303230086,0.34404507473624996,6.250768334709536,1.5646847052205195,1.7477816831325526,0.26857601791505703,-0.6259359761489555,undefined,1493662273578
903d185fccf839df,5.65070068829311,0.19969564458536254,0.07870800541019428,2.206329423294561,9.86575142569152,-0.27847326580387877,-0.2963588731682071,4.564626185276226,-0.17440280365822705,1.5950631770371162,0.5628344275197995,0.03956352015840445,-0.9523242535650625,1.0597409872973087,0.45555861114042084,5.2183727199644165,1.575830545438878,0.8128055664508337,0.3225718610730077,6.306772474887726,1.5689666206798318,1.7791006252383008,0.4449966222206172,-0.4549474939333348,undefined,1493662274222
903d185fccf839df,5.90849916176124,0.33940521413825275,0.07168988648339238,2.2181108661319513,9.738496770480603,-0.23368199884373692,-0.2826312849464311,4.637015856885224,-0.01464870675741607,1.8863736917308391,0.554775301765358,0.0004399036956810613,-0.9218610739750446,1.1356593342463948,0.4460848886976129,5.3396094945204275,1.606464691509674,0.845230238167667,0.3002030570856458,6.517192240379025,1.6125297401409635,1.82829944543131,0.5468898500255827,-0.4008662147344688,undefined,1493662274538
903d185fccf839df,5.258458648854774,0.41278220581539554,0.09465827569838041,2.0753834633449575,10.086132746635547,-0.3832191629037465,-0.29479150649024,4.426418465556929,-0.1612672063664137,1.6488936485931562,0.5537033734404692,-0.01216205551017335,-0.9175091911764707,1.2467593927083378,0.3797690966383742,5.214331882314726,1.7903150094802336,0.8363704485732927,0.2627841119972259,6.259853420942272,1.539598090566186,1.7956467416750717,0.8087885984973798,-0.13813261306164837,undefined,1493662275647
903d185fccf839df,5.423393955299171,0.3411663760445863,0.03149520535716334,2.0753834633449575,9.997953451298947,-0.35987319773161947,-0.26849870582915913,4.3756243892916,0.05258362177095448,1.9093529127931521,0.47976569706962496,-0.011735080803247833,-0.9305648395721926,1.2365751367184714,0.3787164738998112,5.307279853791858,1.8885479311452809,0.8019825646708143,0.24464138146128958,6.176224462390721,1.5081217048686006,1.7893968202539552,0.8482650415206312,-0.12684592087200017,undefined,1493662276086
903d185fccf839df,5.2030181169261445,0.3458624960295574,0.07424212033221422,2.0550125278300597,9.68347856087563,-0.353248841575429,-0.29717674048639386,3.946235766533082,0.08676892631593282,1.4869669913196863,0.5009917459451637,-0.014002870207930448,-0.8696384803921569,1.2226876326484222,0.38397964649049665,5.202208351835677,1.8190846939500263,0.8078785359597693,0.25044173768417216,6.03535948145567,1.488224289464213,1.7786313412789378,0.8084481869602705,-0.23170755167154602,undefined,1493662277172
903d185fccf839df,5.512099358471535,0.33470909415328165,0.06467183109082784,2.05219654238473,9.631072938311636,-0.3715869412685072,-0.31169852935419096,3.7719604817791,0.11293757680022376,1.5102982407363932,0.4865403919154126,-0.018285426235861317,-0.8739903631907309,1.2245392825900627,0.36503220160488087,5.18402282999933,1.8272029865182042,0.7951176543889211,0.23304066921127062,6.079799395848316,1.486392038880152,1.776549894498871,0.8344600920545786,-0.1524526876003196,undefined,1493662277668
903d185fccf839df,5.52734522870863,0.363472945973199,0.07360398245221207,2.0998905601181015,9.606973546955672,-0.3972924262571402,-0.32232294552792295,3.6398427818397887,0.24364298510534754,1.5719976729946228,0.5389127069315507,-0.030496055103308394,-0.8783422459893049,1.208800128578373,0.3776638511612482,5.151692963152988,1.8190846939500263,0.8039267791050767,0.258355130779577,6.10358999273006,1.5022930367320095,1.7663580810444581,0.807330835741227,-0.32968192574462096,undefined,1493662279793
903d185fccf839df,5.52734522870863,0.363472945973199,0.07360398245221207,2.0998905601181015,9.606973546955672,-0.3972924262571402,-0.32232294552792295,3.6398427818397887,0.24364298510534754,1.5719976729946228,0.5389127069315507,-0.030496055103308394,-0.8783422459893049,1.208800128578373,0.3776638511612482,5.151692963152988,1.8190846939500263,0.8039267791050767,0.258355130779577,6.10358999273006,1.5022930367320095,1.7663580810444581,0.807330835741227,-0.32968192574462096,undefined,1493662279813
903d185fccf839df,5.237668725424816,0.4274574638564609,0.13995729745377844,2.125879220897101,9.724364218056527,-0.42261358529297716,-0.3226411526636057,3.692069696951911,0.34013806602752233,1.5227227697144154,0.5699430989417699,-0.03237497685134777,-0.9088054255793226,1.2226876326484222,0.3850322397801245,5.155734139979338,1.7903779114186509,0.8096897577075501,0.2602092852031167,6.051466252996195,1.495958443655801,1.772879447190166,0.7916782316641722,-0.2872428958426621,undefined,1493662280144
903d185fccf839df,5.0796621052551085,0.4274574638564609,0.15463141905043495,2.0795991845077997,10.014904300407654,-0.43925367078361854,-0.3195248321547395,3.952839877143815,0.6555306501397609,1.5720880117790865,0.5906319745169867,-0.0681318534840341,-0.9088054255793226,1.197690254830079,0.37345327186019056,5.0405599220750545,1.7885915092461568,0.7822427792449933,0.24844064905162913,5.963479534504506,1.4654235031476608,1.7317201726089428,0.703773546953126,-0.30920667907204435,undefined,1493662280603
903d185fccf839df,5.1794561668997545,0.19676068650672496,0.177599808265423,2.1270781349016485,9.909938780216793,-0.45230905782062025,-0.30407998284406607,3.7426903267641096,0.6854298242106283,2.0457360854835716,0.6550726043566961,-0.02622489983558761,-0.9827874331550802,1.191209428231239,0.36713756487774757,5.052683226436331,1.7497464678362127,0.8064979522670449,0.2985727976189166,5.723648744484236,1.429976895828743,1.754338582060625,0.8364126836622849,-0.18004186303613592,undefined,1493662281627
903d185fccf839df,5.046398338184487,0.3693430959544129,0.1565454514850173,2.0620685409527955,9.60991528417593,-0.43270151981321503,-0.34372167896426864,3.369108784921116,0.7245405759173061,1.5944497072272978,0.7228673022134898,0.003753863470741706,-0.9784355503565063,1.1615826665433038,0.38082171937693726,4.915281857633808,1.8185994449922191,0.7693109077685323,0.2535623097931126,5.9110786220256415,1.4266816046763002,1.7065618757475436,1.0850599049291398,0.2933046698913883,undefined,1493662282083
903d185fccf839df,5.323600445741081,0.25487505440877295,0.06977598111728475,1.899389431056403,9.570089056856796,-0.4653551246625179,-0.3656779300802062,3.1839340180325624,0.6954396818557502,1.5424974667997147,0.7332910551160967,-0.003442054345707378,-0.9871393159536542,1.1902835514573207,0.3545060920149913,4.715241682728434,1.7364408361975405,0.8039204452866061,0.2782610522244854,5.992382408920208,1.4635822112732553,1.719212721537104,0.9105972599768665,0.3228482774287385,undefined,1493662283154
903d185fccf839df,4.939675038178596,0.2636803962925631,0.18397997991493478,2.0094193748310736,10.021734023230405,-0.4750284563968677,-0.3422673975179323,3.720981916295919,1.156080583210635,1.5710349135810966,0.8001875259193366,0.0227627795352445,-0.9958430815508021,1.119920154333156,0.36608497158811976,4.933467379470154,1.6570873528613097,0.7572403175346734,0.22742922004930113,5.939627334888541,1.4286466805354983,1.6196827797589346,0.8455243164129006,0.18244335499269776,undefined,1493662283548
903d185fccf839df,5.30419625956606,0.2554621863188637,0.12847303931204707,2.1839073124579005,9.783856703570635,-0.49032457077408925,-0.3784245980091861,3.282003721913266,1.1456641564288883,1.589117088451932,0.8228815801021819,0.000013960000353497901,-0.9436204879679144,1.1328818075308358,0.33661126986793855,4.834457642753497,1.6946504840554577,0.7820781226650878,0.2553604893626153,5.884916660789186,1.447497800315501,1.6071921204383164,0.5468604147380197,-0.2516766324027792,undefined,1493662284655
903d185fccf839df,5.609119737260082,0.1803240327353874,0.22736484216727576,2.0921177863058427,9.62951981186042,-0.5021128496615146,-0.4093563760720204,2.9903695373291552,1.070187378970392,1.7472880621534583,0.7992963528824002,-0.03971703996973788,-0.9305648395721926,1.1606568933755816,0.31450592731769855,4.8425403355828545,1.6387063110912947,0.818663537564078,0.2729154882253393,5.5673083186329455,1.382002199569815,1.5987384625682863,0.9693970204373131,0.11374457639054274,undefined,1493662285053
903d185fccf839df,5.48299225107917,0.14275507285561861,0.2318309178479679,2.02078968354384,9.48711434579128,-0.48235624280863004,-0.3980245420791314,2.8607606606733835,0.8887113152246731,1.707908533880937,0.7567629287593863,-0.051052783124773606,-0.7782489416221035,1.08103509113392,0.33450587714613667,4.630376291021773,1.6415277937692851,0.8453695639528529,0.2848170639975807,5.791525085859193,1.4268851896066954,1.5648558748591517,1.0590083831308312,0.5717840989727604,undefined,1493662286138
903d185fccf839df,5.336075393554856,0.29361804428478455,0.169943742061331,1.9387759922869894,9.442669853187178,-0.49739381188409904,-0.4246408095482924,2.717106194685727,0.7495405869574986,1.4403410784770283,0.7148185938713137,-0.0039052857840102726,-0.7782489416221035,1.0097459726451314,0.30819013198845,4.67482980140605,1.650254047100472,0.8154210726989698,0.24959511773853488,5.735043587908364,1.3993071201699825,1.4697746201078319,0.9629495932212634,0.45974354206397755,undefined,1493662286563
903d185fccf839df,5.385971872290623,0.25781024631134924,0.1316630933696843,1.9044089740077386,9.589775888474374,-0.47699433099327165,-0.43258282339025844,3.040314165933396,0.2270947603001675,1.428199329676298,0.6624238599336018,0.06038829557364722,-0.6128773952762924,1.0810351947401162,0.3029268710509591,4.727365665443027,1.6524265510648344,0.9045192580325738,0.29861477370675177,5.743050775555591,1.4460374243033904,1.5358289509445349,0.8881353115202089,0.3700480406199141,undefined,1493662289412
903d185fccf839df,5.385971872290623,0.25781024631134924,0.1316630933696843,1.9044089740077386,9.589775888474374,-0.47699433099327165,-0.43258282339025844,3.040314165933396,0.2270947603001675,1.428199329676298,0.6624238599336018,0.06038829557364722,-0.6128773952762924,1.0810351947401162,0.3029268710509591,4.727365665443027,1.6524265510648344,0.9045192580325738,0.29861477370675177,5.743050775555591,1.4460374243033904,1.5358289509445349,0.8881353115202089,0.3700480406199141,undefined,1493662289461
903d185fccf839df,5.385971872290623,0.32649111800352093,0.13485314742732152,1.9044089740077386,9.605955296715656,-0.48061629816595347,-0.44151364492220524,3.050229528194883,0.2255086744373528,1.2766231795806617,0.6586168211988047,0.09020528935359227,-0.6041736296791445,1.0995518236642667,0.30503214597702033,4.69301521018351,1.6394935403911106,0.8974833579447281,0.28908511654643604,5.746130466044926,1.445677967953166,1.5431312199138987,0.7792187467758271,0.23671573647559013,undefined,1493662289590
903d185fccf839df,5.725544854310205,0.46033053757519726,0.11124674740080605,2.14437453031984,9.517621714024987,-0.4579714312290514,-0.4310654245862102,3.017650214595292,0.19154277827058735,1.4730808057728813,0.6135150315508259,0.056647638716359555,-0.2212079434046346,1.0801092402615506,0.32082178154481733,4.355573327298953,1.6547647813413948,0.8680288373053546,0.2553814804803563,5.587772856360119,1.376662063171788,1.635998231331394,1.1728306760299398,0.22418061576179812,undefined,1493662290641
903d185fccf839df,5.559223258524315,0.3411663760445863,0.11124674740080605,2.0868039395457956,9.606973565392474,-0.46458181196352544,-0.42887216607513534,3.1306305965912733,-0.006967379042932629,1.3708267350870795,0.6054370217450964,0.008395784395739313,-0.2212079434046346,1.081035117035469,0.2871374710746434,4.343449683761018,1.591880401392581,0.8855204281963178,0.27889076478130914,5.592592570229063,1.3937174116044357,1.6226647184684921,1.0449111708892274,0.07571270602996409,undefined,1493662291110
903d185fccf839df,5.699210877687384,0.5196191692974268,0.1259209960659373,2.0907474198836318,9.628480955421265,-0.47174655434004176,-0.4481249770044611,3.1204762966263035,0.04162173146517325,1.3309986444462898,0.6494229344413202,0.10061876291323493,-0.33870877896613194,0.9634542060731369,0.2892427754496398,4.606128664769244,1.5173963729741922,0.7697985482575276,0.2619444902693894,5.386561370642394,1.3174751351673666,1.6037223608308306,0.7522736823130662,-0.044101712211591246,undefined,1493662292133
903d185fccf839df,5.653472162802986,0.150386384743166,0.08062222844748868,2.076247398361114,9.511645711420348,-0.47838255598514723,-0.45520704441001103,2.870746432329557,-0.05146940611065245,1.2650150074438993,0.5507078410129881,0.13210865006223055,-0.504080325311943,0.9754900342999966,0.300821625573833,4.571778774804157,1.5173963729741922,0.7814954942053874,0.26409251149603113,5.352669393763282,1.3156186606686375,1.6268762204251253,0.761909279739389,-0.0499106713777786,undefined,1493662292569
903d185fccf839df,5.577241707444397,0.2589840424836533,-0.03230581226134382,1.9745469056299725,9.596152987805675,-0.4974240859337973,-0.47609822227522214,2.873983372691575,0.06093853035159729,1.1645166084979959,0.5629217729574223,0.07983662860839065,-0.7956564728163993,1.0134491948237652,0.32292699757300825,4.222213361440551,1.3862121112711212,0.7502044190026305,0.2530305520991975,5.114132073752842,1.2589561321171425,1.6849631129190976,0.5766093429365583,-0.26667389341226666,undefined,1493662293646
903d185fccf839df,5.65485845214448,0.25663621631510647,-0.020821617653849805,2.0293327823738956,9.552603352022226,-0.5047728387254271,-0.48403760631372433,2.768276002495079,0.16139830017494133,1.3168980843902929,0.5542111441392487,0.05170867307936093,-0.7869527072192514,1.0273367247953635,0.3050322343238258,4.266666532648171,1.3571047145646993,0.7327824907966353,0.2627141389397566,5.082134098811309,1.251304615646562,1.6685351181769963,0.5038649944417486,-0.3261581267143931,undefined,1493662294074
903d185fccf839df,5.556451231927883,0.2613323363000776,-0.018269574407740023,1.8164618275575606,9.595206714841042,-0.5110291728916422,-0.4808529105219826,2.787923596174895,0.07531280295320629,1.071220082571696,0.5060131311491493,0.08155159847093699,-0.504080325311943,0.8819808833975802,0.28397957341001917,4.113100569599134,1.249308909947834,0.6680598054281628,0.22621177620463975,4.886373666631788,1.1860672373509908,1.5477438161555257,0.09245856965497005,-0.5973877164393654,undefined,1493662295115
903d185fccf839df,5.309740312758923,0.30418454807490825,-0.032943950141345976,1.7041869849083615,9.471315489533524,-0.5247879885605693,-0.4910591875849092,2.5446996169268865,0.0375711729971656,0.9447094249943642,0.5070417880737419,0.0823177823406296,-0.3822276069518717,0.89494253659526,0.3018743955570719,4.088853508641036,1.198983821176774,0.6737024585492359,0.2386241187365674,4.738102031323491,1.1601313073612856,1.5717194856777188,0.06942756413865894,-0.5330927266860299,undefined,1493662295632
903d185fccf839df,4.519712732775945,0.3857795159018117,-0.031667864984053724,1.514785149015359,9.358820809558805,-0.5370374561326849,-0.5195268379282254,2.2755782538380727,-0.19169393255320746,0.7852757475926485,0.4089960679614292,0.12375096066784341,-0.2647267713903743,0.8727224782800831,0.2966111640685161,4.068647285332629,1.106721551785549,0.7272031662929099,0.26009733165352816,4.917078160309001,1.2182468971505085,1.6079194319575731,-0.14121754698848282,-0.4050103212980725,undefined,1493662296868
903d185fccf839df,4.368636455140594,0.3887144739804493,-0.03485791904169095,1.4778375180229233,9.293403774457643,-0.5389031753957176,-0.5240527344030081,2.1771275405333275,-0.25998549844294955,0.7269586936139024,0.3975116078620522,0.11589754961804882,-0.2864861853832442,0.8930909125551687,0.2966111640685161,4.068647285332629,1.1362355585050519,0.7423135700511202,0.2630569823546266,4.925470313359936,1.2263942830113395,1.604213002948392,-0.1327132495431387,-0.39478800657166196,undefined,1493662297100
903d185fccf839df,4.164892776346156,0.35936372407437994,-0.040600079879675316,1.4361728935892488,9.421594416946153,-0.5115532491184602,-0.49903013087717674,2.496125189325178,-0.29655068877492263,0.586622348679773,0.44299455964785756,-0.03428066011677418,-0.3125974821746881,0.8375407667672262,0.36187436283812696,4.610170406890024,1.264805574981674,0.7353536659296566,0.26186052910775587,5.187028308599071,1.2723626066023408,1.6096381672494233,0.11958512170067458,-0.312454898073025,undefined,1493662298151
903d185fccf839df,4.00688726034956,0.5014215874436944,-0.026563778491834167,1.3797029047746439,9.381685918470465,-0.5442534354595243,-0.5181751202573136,2.25076352746669,0.08718863009840483,0.46049431113625994,0.4464100858630969,-0.033219063229474065,-0.26037488859180036,0.8505024717680043,0.3387164269982591,4.739489308980962,1.2627713216034995,0.760964091080116,0.28568467013672477,5.106633027172216,1.2726970653326035,1.5948210158784695,0.18504003710262376,-0.297268717738793,undefined,1493662298538
903d185fccf839df,4.174594593390389,0.40808608583042444,0.04616958109076929,1.6859914188644418,9.344873440472044,-0.464900916034352,-0.47632701773807745,2.548985425544951,0.9440349744131933,0.8568229268463835,0.6748897714844303,-0.11704248554958961,0.22703598484848486,0.7468091425803688,0.2776638664275762,5.141589794969342,1.3264503762944815,0.7799059246281324,0.20034456906060286,5.444490326800037,1.322621891144594,1.4049651507466148,0.2594454715238005,-0.36625607590743403,undefined,1493662299559
903d185fccf839df,4.157962985898355,0.49144221556366147,0.08572618787123353,1.6727831202706918,9.67059062165063,-0.47572255764325433,-0.4467154017351876,2.975910980294118,0.9802223214922156,1.078181551096863,0.6639485978678824,-0.20100899149397156,0.38370376559714797,0.5597906335631432,0.21240054986222465,5.141590247204887,1.352505294399686,0.7854409164221828,0.19617446909910957,5.225201068591971,1.2740055917883386,1.3282583691416976,0.2908924056771633,-0.4660375526664524,undefined,1493662300040
