UUID,iqrAccX,iqrAccY,iqrAccZ,iqrAccXYZ,meanAccX,meanAccY,meanAccZ,meanAccXYZ, covarianceAccXY, covarianceAccXZ, covarianceAccYZ,pressureDerivative, pressureIQR, iqrGyroX, iqrGyroY, iqrGyroZ, iqrGyroMagnitude, meanGyroX, meanGyroY, meanGyroZ, meanGyroMagnitude, covarianceGyroXY, covarianceGyroXZ, covarianceGyroYZ, class, timestamp 
903d185fccf839df,-0.7263529665618911,-0.7283760027403058,-0.6160865307540417,-0.7433511751149638,-1.484825709386847,-1.6998641834489348,1.9134780984396866,-0.8249593980125653,-0.27635678222925425,-0.6536486442378975,0.13092503877680844,0.08923625479756693,-0.9653799019607844,-0.8391443272994619,-0.9002324189357607,-0.5201531222177747,-1.0174976449762885,-0.6316438934916188,-0.874169666641109,-0.3776619091358583,-0.7245549880466767,-0.4998560861782332,-0.675600562022785,-0.6293937895293578,undefined,1491901471829
903d185fccf839df,-0.8566383546158107,-0.7483346295884024,-0.7596388362792421,-0.8640534361869305,-1.5253529178477139,-1.7006547098061724,1.8916467348242203,-0.9712257986791223,-0.31177698482449095,-0.631659765221718,0.09907787664265158,0.013947225647027396,-0.9914911987522282,-0.7261926188958783,-1.0865484253219935,-0.8272855570808347,-0.9713029786711237,-0.7635357771117592,-0.9738097801884129,-0.6282918714808218,-0.8743203783300971,-0.44432047474505865,-0.6102691484632679,-0.5212122160590273,undefined,1491901472250
903d185fccf839df,-0.8171369066058424,-0.8490077602222049,-0.8240780553119889,-0.9083780442792011,-1.2702944189656695,-1.7309069187401493,1.870091924699727,-1.10733154011604,-0.3504343282055684,-0.7356274219853595,0.0888262199479002,0.001290959492772738,-1.0001949643493762,-0.8169242884104467,-1.1076010862358001,-0.6898842448077542,-0.9714183336252057,-0.8819942021597577,-0.9954693812714925,-0.6204074003414408,-0.9432748247695654,-0.42523001069804656,-0.626013811539269,-0.4748994253821358,undefined,1491901473335
903d185fccf839df,-0.797732685925412,-0.8111452343873907,-0.7717611687667383,-0.8684616251462126,-1.2170437806912848,-1.712945120613215,1.8836175510522932,-0.9806124674562027,-0.3227835280632261,-0.7973867528825009,0.0880975062012994,0.033712028834818594,-1.021954378342246,-0.6900850921252821,-1.0381273155273656,-0.6090598886038358,-0.8577695886500623,-0.845264895127629,-0.9634600672454884,-0.49215498307977795,-0.8890859221886592,-0.4591293217150514,-0.6141769489226332,-0.4701353078732752,undefined,1491901473735
903d185fccf839df,-0.3646030989153678,-0.7324851661831402,-0.5784437658054478,-0.6271046488333486,-0.9590208818161916,-1.7239781643102414,1.874913218868336,-0.9795195373119663,-0.28040013390296115,-0.7705181929267131,0.09848651493987276,0.05431378131762107,-0.9262129567736186,-0.7826684471961209,-1.0181272920765896,-0.6575544910202983,-0.9642782872470639,-0.8595348710304853,-0.9597056828199447,-0.591623304236759,-0.910217589557712,-0.47002281482851344,-0.6311202453780456,-0.499788789674079,undefined,1491901474893
903d185fccf839df,-0.14838490362477635,-0.7330721811812616,-0.5353779724931078,-0.5136798092896442,-0.8385426455619122,-1.7017630454446422,1.8329056565405226,-1.1796645127486733,-0.197289901947163,-0.7916714256669147,0.09139615814667697,0.04510882624559697,-0.8783422459893049,-0.761374278605637,-0.9876009455311439,-0.6737193396493047,-0.9511410032484138,-0.8406877465923015,-0.9400206256661727,-0.5684302554715591,-0.8927180176702706,-0.4705050096738612,-0.6422550549628916,-0.4814372556421031,undefined,1491901475267
903d185fccf839df,0.356817512914126,-0.6558796504723144,-0.36853782760749415,-0.34882610319015767,-0.4759791739287936,-1.7119837925199404,1.8053982347978532,-1.2325201170935098,-0.106269550657217,-0.7653079635587372,0.08002901941890722,0.09145897423510456,-0.7782489416221035,-0.7984076530109089,-1.0033904264920313,-0.657554505152659,-0.9183815443015826,-0.8035497868536557,-0.9560179531828144,-0.539390867338528,-0.8797431824979659,-0.4569603953078462,-0.6080194501657046,-0.4753981796320643,undefined,1491901476355
903d185fccf839df,0.4240392613938192,-0.6426717545585986,-0.31558305731919095,-0.24366372196666586,-0.4303547615942181,-1.6998049751351894,1.8326855351603855,-1.024547537249734,-0.07005892093510901,-0.6298675355647,0.10274900529304762,0.0916087768035663,-0.5606548016934046,-0.8002593029525494,-1.0002325509141086,-0.6413896706560133,-0.9178301941819627,-0.7935139335166462,-0.952055837535832,-0.5269241664819639,-0.871129312383608,-0.44564583621707154,-0.6008213192358617,-0.4810394509731508,undefined,1491901476792
903d185fccf839df,0.4919538094901618,-0.6174300511833942,-0.23200325980367148,-0.19650193954339235,-0.13996983624569448,-1.675496042788579,1.8095991428895994,-1.0073145152964287,0.15949014207043102,-0.5059316477272703,0.13412680117233342,0.03802648012049425,-0.6215811608734403,-0.7623001294780064,-0.9539166865966066,-0.5888538207513972,-0.9283081180018667,-0.7666079700028569,-0.9504099209734233,-0.5031592323880694,-0.8546285888034211,-0.438493841796022,-0.5975908183260065,-0.491783292128651,undefined,1491901477855
903d185fccf839df,0.5702638368826297,-0.5863182562829606,-0.266456097763103,-0.14494456176816198,-0.09742217961908128,-1.682530518486277,1.8286335374093843,-0.8836531332211955,0.15158703443860316,-0.37072813314744013,0.12979690317123657,0.06322753333073654,-0.7564895276292335,-0.7623001294780064,-0.9876009308066763,-0.538338615789399,-0.9232423680484617,-0.7597333333409017,-0.9533460827942029,-0.4531142869185353,-0.8407344291933001,-0.4412089366295611,-0.5908334585130216,-0.5115538116810368,undefined,1491901478251
903d185fccf839df,0.7705429655072643,-0.46304498976549996,-0.04060001634543796,-0.005266660094398487,0.1471155671269847,-1.6607484354460047,1.8150755724332877,-0.8232299362178437,0.25399240508109977,-0.2720072170994348,0.11052321858199857,0.06438206506089392,-0.8043602384135473,-0.7104534260318649,-0.9549693166974034,-0.4292257956832603,-0.8592428888957316,-0.7462751211931795,-0.9221579545680572,-0.4074963917610449,-0.8164568802208224,-0.41804506041785117,-0.5915659192788345,-0.4834262642396914,undefined,1491901479324
903d185fccf839df,0.7622267476963309,-0.44073836138090255,-0.028158487849466,0.10943451921706275,0.11202873876814146,-1.6729008371462868,1.7921049786137369,-1.0030576595608645,0.27179566086462975,-0.24207936453388637,0.12019194358473557,-0.002372871105384922,-0.847879066399287,-0.6799009170777566,-0.9602324598391536,-0.4231640021790142,-0.9361519919990554,-0.7468562067126447,-0.9256249493484761,-0.4219496713140623,-0.8201238562792877,-0.4223996396631661,-0.6007998945924057,-0.4814348903137537,undefined,1491901479754
903d185fccf839df,0.7054000644478461,-0.4513046898030722,0.07105200274033965,0.3007866444152049,0.054970134699067516,-1.6997230212587247,1.8203264194975317,-0.8813451867487828,0.23728094682030168,-0.19808428441404902,0.11123529213601104,-0.09381787416917425,-0.7260263480392157,-0.6262025507392002,-0.9518114190327791,-0.3827518664741372,-0.7880378371842773,-0.7235428739788701,-0.9097132385953683,-0.3883949274892337,-0.7986178711044656,-0.40001432691890726,-0.5976550476380922,-0.4513108123173064,undefined,1491901480845
903d185fccf839df,0.6527315591156475,-0.4847645446959913,0.08381221897088854,0.3626346847906304,0.04349715629908223,-1.7096351367115417,1.8429329963566283,-0.7560774594090555,0.2089491594606521,-0.1397329896658421,0.07635446804405174,-0.10423470203811477,-0.7347301136363636,-0.63916420393688,-0.916021936707817,-0.3665869330509661,-0.7951198278319175,-0.7235357069709109,-0.8972037927603725,-0.36206854126516186,-0.7891007891375003,-0.41243021948264824,-0.5996975457406236,-0.43740744719251073,undefined,1491901481243
903d185fccf839df,0.5182882001779001,-0.42723701642411066,0.420682181594329,0.5904027536759889,0.09227178739871542,-1.730267111230535,1.8109888535240617,-0.9788058276738483,0.2306453203630864,-0.06869273323478195,0.09646732354080173,-0.14989874271452783,-0.31694936497326204,-0.6558292088209391,-0.945495608979063,-0.41912271229377834,-0.8338725981479969,-0.7209702390259071,-0.9071514261154368,-0.40582213341259715,-0.796759452457694,-0.42601833514551996,-0.615373785795032,-0.44402024051329775,undefined,1491901482326
903d185fccf839df,0.3284041712898836,-0.34388088669087363,0.5240401871987245,0.6219022673339082,0.15761682174638286,-1.7288439467565706,1.8280904806372174,-0.8502879041136093,0.23311735523839489,-0.08706599109646887,0.102601826410705,-0.19156428305078457,0.10083138368983958,-0.6382383789660598,-0.9560219615226677,-0.4069991111529254,-0.8082787839670741,-0.7068176448397762,-0.9116016640016867,-0.3975175750272421,-0.7908971556092557,-0.42885278785844594,-0.5988419472712744,-0.44499371284968375,undefined,1491901482749
903d185fccf839df,0.21059283390908626,-0.27989613498367305,0.8883444876493704,0.9977497288655891,0.3054325735261207,-1.7092923140312484,1.8094162300052794,-0.8912521400179938,0.23960434179149256,-0.03257363703792168,0.10191578338273337,-0.24815517185268,0.3184255236185384,-0.6382383789660598,-0.9644430023290422,-0.3989167151031437,-0.8647842957291648,-0.704912883736657,-0.9195229996190283,-0.37324255066847073,-0.7903341885685431,-0.4305806978734636,-0.6046846651031346,-0.45222599942889485,undefined,1491901483895
903d185fccf839df,0.23969938921489492,-0.23586995166858432,0.9776662554001622,1.1309863563559004,0.3653056148647538,-1.7226341965175866,1.8239222405760556,-0.7883253959780187,0.23370314722141763,-0.032972369279984017,0.09150080206368606,-0.2178626427310486,0.2923142268270945,-0.6280541877300662,-0.9623377494896824,-0.4433699993696488,-0.8698657216582805,-0.6945706027170168,-0.9148751472304796,-0.379291448716241,-0.7859906097049185,-0.4277170214435731,-0.6097898973265129,-0.45633090041701746,undefined,1491901484255
903d185fccf839df,0.24108526449147175,-0.18069051261718158,1.0816621447476105,1.1920876427340228,0.4478586185873178,-1.7265053911599026,1.821455483879634,-0.771288095172848,0.2090074556661165,0.058237586142380476,0.08544241084895868,-0.2776262309279615,-0.147225935828877,-0.630831714445625,-0.9570745916234645,-0.3665869754480484,-0.889544833657338,-0.7017934219659351,-0.9181743885175258,-0.35676252164963673,-0.787428385129083,-0.4323439705826891,-0.6068928436904671,-0.46710606338363014,undefined,1491901485369
903d185fccf839df,0.24108526449147175,-0.19243084180760167,1.1384452340420277,1.2152043015418938,0.45566546272953895,-1.7191123854176156,1.8072492709037136,-0.8485738252477139,0.22535691967185262,0.11190257213596433,0.08840199970853846,-0.25620250220321,-0.07324392825311943,-0.630831714445625,-0.9518114263950128,-0.3665869754480484,-0.889544833657338,-0.6999468006161303,-0.9183405389336204,-0.35529309670578446,-0.7865941448376728,-0.42828845915469754,-0.6006197166814312,-0.4630594761201937,undefined,1491901485758
903d185fccf839df,0.16762642166439792,-0.18127746915931828,1.188847961084221,1.3706457383190214,0.3900427191370246,-1.743615982478753,1.8062920161578155,-0.9034688789547676,0.1890062280026583,0.108761523755748,0.07481497195749977,-0.19496163177126305,-0.051484514260249546,-0.6021308295316081,-0.9476008839051242,-0.32213353572557485,-0.8571298445583286,-0.6732945809802346,-0.9302934808135772,-0.3044253968254595,-0.7698011935745582,-0.44024917869386515,-0.5672189215760417,-0.4818802857128098,undefined,1491901486862
903d185fccf839df,0.21613688710194925,-0.2170854425007076,1.2079882854300446,1.4276472966059253,0.34159708627388663,-1.7399777101255156,1.8285086167691327,-0.7701392010150117,0.25116782704675794,0.18514379151146598,0.08596248789346539,-0.20513658561817646,0.03555314171122996,-0.6039825053747977,-0.9518114043083115,-0.26959778474748414,-0.8648270871762501,-0.6684153339171783,-0.9317268039149943,-0.2967035046871979,-0.7663834082344378,-0.44291618379748837,-0.572486769097729,-0.4841672496355233,undefined,1491901487260
903d185fccf839df,0.2771216102450813,-0.22236860671179243,1.224576566529758,1.1999966908021598,0.16948651712303442,-1.7244486710382427,1.8100500079261703,-0.9220340628345128,0.03486062633014268,0.028114419465044848,0.030746623120805033,-0.12199369845713003,-0.36917195855614976,-0.5975016658251833,-0.9897062057327376,-0.33223663324741753,-0.8559006420555669,-0.6644151092176932,-0.9385383814168226,-0.30330573175270203,-0.7674260917977664,-0.4405086949505788,-0.5794698599022755,-0.48863949686279956,undefined,1491901488351
903d185fccf839df,0.26880559946660626,-0.17892949685080975,1.180553947602839,1.1406999382593803,0.074240965355547,-1.7044242010079964,1.7862160787084724,-1.0688093578454518,-0.06680622697731833,-0.016164146999523447,0.01947296043489931,-0.1091942060783047,-0.5127840909090909,-0.6076858635365642,-0.996022001061986,-0.33223663324741753,-0.8589803626081376,-0.6745908867085086,-0.9419170538431837,-0.3049209880382911,-0.7735993234506231,-0.4386425941549899,-0.5806017234582462,-0.48870077860409333,undefined,1491901488765
903d185fccf839df,0.09139575927335102,-0.16601507920816222,1.1722596799845075,1.030725011255786,-0.1968385763823251,-1.692209670656462,1.7973033395388998,-1.0782874624394754,-0.29979399574529936,-0.15221753824944181,0.02203731666532001,-0.09170529198701445,-0.8000083556149733,-0.6206475232096313,-1.0012851736526716,-0.3221336205197394,-0.8759323654317375,-0.688607852433837,-0.9523494487422782,-0.3213151964290616,-0.7862872703573366,-0.4347240937508809,-0.5812738171750612,-0.48484909052343417,undefined,1491901489876
903d185fccf839df,0.08169366618584074,-0.17599436340421815,1.2188343421575363,1.130024770612376,-0.2018477104499578,-1.6650786920293963,1.8239590525869378,-0.8673137075815796,-0.3448316780549361,-0.22195190881031368,0.08573139510403112,-0.1138650655973312,-0.7216744652406417,-0.6150925086308371,-0.9939167408603924,-0.3261748256108107,-0.8685129579023826,-0.6854654120878793,-0.952877924422132,-0.32006241801296514,-0.7843697381195828,-0.4309272978891685,-0.5866118728167583,-0.4900820969666195,undefined,1491901490282
903d185fccf839df,0.055359413519741454,-0.10085638518869587,1.0057387311073698,1.0101971766579039,-0.26231732596979973,-1.5922340657240368,1.7655852459194075,-1.104318490732041,-0.40958862917062683,-0.44704550081860955,0.08071149646413023,-0.05212373608361945,-0.7086188168449198,-0.5928725021187583,-0.9391798136498145,-0.2635359629785165,-0.8292500448651398,-0.6753095381817199,-0.9181656191041707,-0.2713510362955362,-0.759104569420494,-0.40921480168721874,-0.590312002550265,-0.47164076006962763,undefined,1491901491385
903d185fccf839df,0.055359413519741454,-0.11377071514736639,1.0057387311073698,1.0101971766579039,-0.2627287534512343,-1.5802641053830102,1.7550975813262133,-1.1593739088084551,-0.4187978284839126,-0.41848752183816906,0.09266777580279545,-0.005303990161256593,-0.7303782308377896,-0.5845399996767288,-0.9370745681726885,-0.2655565796564129,-0.8347409475853118,-0.6708954763832111,-0.9164793877501792,-0.25556762947077094,-0.7538946769923591,-0.4122682436247075,-0.5921447478971885,-0.4735994680997518,undefined,1491901491792
903d185fccf839df,0.11634399864123456,-0.10320441595318908,1.1467392475234097,1.092807133264633,-0.19285801355894083,-1.6046558980737586,1.7822214004383026,-0.9819632859977198,-0.4969964786041986,-0.623998983906893,0.06741284671942382,-0.003730573706129327,-0.8043602384135473,-0.5539875101487822,-0.9454956163412968,-0.24130923605109933,-0.7972370140002578,-0.6174454321557362,-0.9275623366131474,-0.20794023712652726,-0.7242885147825189,-0.40756312509730275,-0.5345992863224842,-0.48272672472580413,undefined,1491901493010
903d185fccf839df,0.09278184158238624,-0.09498620597948966,1.1716215421045055,1.1098196958810396,-0.22971166778622634,-1.6090255507141773,1.8024761655706958,-0.8654469553527949,-0.4547842033914427,-0.5099925360480863,0.042657672968689,-0.010452954600333617,-0.8043602384135473,-0.5502841455116285,-0.9412850885758758,-0.23322682586895685,-0.7913350529642231,-0.6090036181728694,-0.9308578344504235,-0.20687774443112036,-0.7207605024423709,-0.4088136089225778,-0.5441476616180845,-0.4763252354101838,undefined,1491901493331
903d185fccf839df,0.16485446407878587,-0.1378384177543203,1.2239386827867054,1.1225519792901262,-0.1648603457281011,-1.620520345230921,1.8015741403638603,-0.9049342076509671,-0.4776783519279939,-0.28453728175559717,0.11827123664973595,-0.0525170994459752,-0.8609347147950089,-0.5771333740086176,-0.9812851575641293,-0.26555660792113445,-0.7853494611348345,-0.5960907457378338,-0.9439768545505742,-0.1706298046179137,-0.7122118282804842,-0.42166215685043035,-0.5563205554247462,-0.47232014978118164,undefined,1491901494298
903d185fccf839df,0.14822230450019686,-0.1648411076679041,1.0408294528098538,1.0578842244390199,-0.21599054383584113,-1.626366736107181,1.7672841031470101,-1.152801839753228,-0.4783242343330646,-0.43432711984887856,0.08485686430846318,0.015137642320997293,-0.8609347147950089,-0.5826883238335392,-0.9907588284713006,-0.21100015547098275,-0.8035900822285159,-0.585274078091875,-0.9580824248742293,-0.168304637726585,-0.7125837531785754,-0.429129396818639,-0.5650419582520512,-0.4677624380129906,undefined,1491901494720
903d185fccf839df,0.0955537301571788,-0.11787987859020078,1.2156444151683738,1.1745894595714377,-0.06694051184238076,-1.746774429116735,1.8438745694061947,-0.8501313958304457,-0.03164752922358116,-0.2942858066174284,0.15104540618460124,0.11930701413607843,-0.9088054255793226,-0.5863916496183693,-0.988653568269707,-0.12007282893646838,-0.8182142987865677,-0.5801887247341792,-0.9689064917531116,-0.14519157081553807,-0.7116356965983331,-0.40976714765925853,-0.5464697971294609,-0.4995206054280987,undefined,1491901495808
903d185fccf839df,-0.1262085355789805,-0.18245152838355339,1.3611113884705301,1.490855000261456,-0.02378172450429857,-1.756596830276438,1.9294169013209346,-0.3360948535274921,0.060473982039435756,-0.3392677377927103,0.19281249295099345,0.09058679504622245,-0.504080325311943,-0.5660233059987055,-1.0086535990827168,-0.13219645834204286,-0.8182142987865677,-0.573140158304972,-0.9845373668723506,-0.152936988605774,-0.7147800996181244,-0.41434190256348685,-0.536205518125772,-0.49525928547509995,undefined,1491901496207
903d185fccf839df,-0.19550940752222654,-0.15427486692971148,1.0854899554798256,1.0675600060741963,-0.18929916371997876,-1.6833981582508852,1.8371711988060786,-0.8910015166530489,0.188259529178606,-0.24748348359419536,0.18448629441968453,0.015377612149855556,-0.5693585672905526,-0.5613941681938297,-1.0086536064449505,-0.1463406761607922,-0.7717321556579234,-0.5748120557071001,-0.9763580950920903,-0.1894005046089578,-0.715130408362737,-0.42178565014930064,-0.5543334540912352,-0.4523687185326118,undefined,1491901497309
903d185fccf839df,-0.10403239181834795,-0.14781767272238389,1.3151743559036047,1.2465223059778203,-0.26033218687948934,-1.7138529611389977,1.8397299980999664,-0.9331584288332563,0.22251876523995892,-0.12408413510559452,0.22053478527180506,0.016720836366236436,-0.5824142156862745,-0.5678749947926697,-0.9897061983705038,-0.10188734949720475,-0.7549177650029174,-0.545338535599978,-0.9705227550350387,-0.16186808409714826,-0.6937169758482598,-0.42838794980561695,-0.5526069978709524,-0.4656702661527967,undefined,1491901497725
903d185fccf839df,-0.12759468689883519,-0.17775546685456697,1.3560067937044118,1.6013044291698326,-0.11926386106125395,-1.6973270079111156,1.9521173889121273,-0.1382225209368726,0.3388963252917653,0.23485384754151586,0.21506196858079374,-0.0092457600245632,-0.43445020053475936,-0.6178700482971706,-1.018127277352122,-0.0008569678379299877,-0.7514738282992446,-0.5425773716970919,-1.0118319261083852,-0.15654022380360721,-0.7018926322845046,-0.4412099567538674,-0.6007201374142731,-0.4765647016637041,undefined,1491901498803
903d185fccf839df,-0.26065210154918633,-0.22236860671179243,1.1014403528364864,1.2287316261795915,-0.1042673127186302,-1.7050554229917656,1.8421704661894482,-0.8664297651052686,0.24083893102428522,0.22695607969548923,0.17246465280502263,-0.014762003095314804,-0.3517644273618538,-0.6039825183255723,-0.9844430331420521,-0.053392747080742216,-0.782066937245666,-0.5603222796541407,-0.992359801267315,-0.19973286344198865,-0.7085795560775418,-0.45593378422261294,-0.602609852637561,-0.5090182584280037,undefined,1491901499206
903d185fccf839df,-0.11373455391667768,-0.27050386578573854,1.2698754612166814,1.3191622120176145,0.06762725762062953,-1.783296899746507,1.7916098019460838,-1.2458971857503356,0.21417391949837167,0.28972589630913365,0.20314623498781115,-0.12484012947190344,-0.28213430258467026,-0.5836141358535849,-0.9728640873088196,0.11229708562400155,-0.8042603910714943,-0.5890485119588607,-1.0012387546918957,-0.15406107558107135,-0.7148341166879817,-0.4412073393082917,-0.6059509942295142,-0.5003342158672363,undefined,1491901500299
903d185fccf839df,-0.04859192890053732,-0.16895024188274615,1.371957445198022,1.5815124459667893,0.09392778260938445,-1.7733743410934029,1.9264162908550666,-0.3448965100175935,0.2378112305670692,0.18438959551844275,0.2273285145458464,-0.1658364347813078,-0.2734305369875223,-0.5752816463623299,-0.9697061786008446,0.20120386614242336,-0.7726713425387333,-0.601144434969566,-1.0019874134801683,-0.1508735964717154,-0.7182849020545744,-0.4559567076792751,-0.6033402701318834,-0.47402743192205626,undefined,1491901500708
903d185fccf839df,-0.22738764437036937,-0.2446752350963898,1.281997539567228,1.2997539933893103,0.017319914091658478,-1.8139450320452233,1.8492551504353794,-0.9275835679605049,0.08592917739371606,-0.2567990725123734,0.18783230117711927,-0.16166996934853897,-0.6563962232620321,-0.5660233189494801,-0.9833904104034891,0.17291531744603855,-0.771471717596705,-0.5986365885424788,-0.9912962863260303,-0.07611414422040123,-0.7031197714423351,-0.4473913796176399,-0.6075968476083078,-0.47248418663095976,undefined,1491901501923
903d185fccf839df,-0.29668830928115697,-0.2875273884152358,1.2768934530750087,1.3394681963933488,0.04861928957356036,-1.7922551562600684,1.8419942541683179,-0.9495750933841949,0.030948746863254138,-0.20099150043496322,0.1961193578723218,-0.13646038123155083,-0.6650999888591801,-0.5567649656350813,-0.9886535829941745,0.19514200197637344,-0.742640099729978,-0.6101435470548101,-0.9890083291265374,-0.09423811449721808,-0.7106846182705414,-0.4458391888680177,-0.5963833639086393,-0.472454692079934,undefined,1491901502200
903d185fccf839df,-0.2925302693865097,-0.37792777119591026,1.3706809153010684,1.430981941439743,-0.07629020886793644,-1.8480707140569967,1.8231753638221186,-1.1941775403075459,-0.18552951327802844,-0.34752974317257157,0.16118348458234164,-0.04883662114972692,-0.6607481060606061,-0.5947241779619479,-0.9633904090394144,0.15472986627149646,-0.7987914475292978,-0.6250956265345392,-0.9860906591316553,-0.09799533594000136,-0.7171076341746725,-0.43632884220213247,-0.6186648294982308,-0.4844416751915444,undefined,1491901503306
903d185fccf839df,-0.2675820300186262,-0.3867330253957234,1.3355909560094323,1.4837570340842985,-0.03436570549055274,-1.8436195375977225,1.9360518959834743,-0.4365859438812004,-0.2051135700463613,-0.268891184319925,0.14790478817479624,-0.03804027424054651,-0.691211285650624,-0.5956500029327682,-0.9718114424835551,0.05167888206668608,-0.8083286617392106,-0.6310485937739977,-0.9869232795892776,-0.13652224691779102,-0.7287571108243404,-0.4309245487348704,-0.6184386028993106,-0.4808878113400004,undefined,1491901503703
903d185fccf839df,-0.05274996879518457,-0.340358767474153,1.2366991531542038,1.3852065116628782,-0.03680341984775334,-1.816052990239806,1.9371011859941858,-0.4220682639067277,-0.12233946634227535,0.29296095130736316,0.15238471999006167,-0.1619400667093671,-0.9175091911764707,-0.5789849850979345,-0.9844430405042859,-0.08370188419030188,-0.8258401756825088,-0.6566273538849438,-0.9765610028644306,-0.16527114304476712,-0.7450028154914661,-0.4311915139140915,-0.6184152108488632,-0.4595598487190855,undefined,1491901504799
903d185fccf839df,-0.17887717893281804,-0.30807291334948433,1.2418027313725244,1.3897400491163996,-0.034550855667232636,-1.80941698689857,1.889843569566466,-0.7170815225136732,-0.13220486024053552,0.2788602581598623,0.17336633520293165,-0.08664629728597835,-0.678155637254902,-0.5604683561737841,-1.0160220539616973,-0.18069106075850538,-0.7958974225180797,-0.6398957158034076,-0.9938781098514942,-0.11116100570612925,-0.7357897510688439,-0.4310264555473236,-0.6310022345998618,-0.43836663943040066,undefined,1491901505206
903d185fccf839df,-0.1539289395649345,-0.36970947353823386,1.151205196135627,1.2754664490081733,-0.03478742282010714,-1.8653047526039737,1.867892588008913,-0.9219835304596588,-0.09238415566171775,0.26911292645327345,0.11829146072317234,-0.05573737807503589,-0.6346368092691622,-0.5762074778085374,-1.008653591720483,-0.2797008822693268,-0.8553127131521546,-0.6546958049338594,-0.976959821573766,-0.20375185709766547,-0.756877190542536,-0.4429749001006256,-0.6161504006770474,-0.4455850620570491,undefined,1491901506301
903d185fccf839df,-0.01255530710364988,-0.2840052838125113,1.1269610394345337,1.2601417303792928,0.054461571821059186,-1.8230663285838415,1.955956904064094,-0.2606870759026191,-0.09290723323761976,0.3112098529261464,0.11982820066527922,-0.04580879015432525,-0.6476924576648841,-0.5752816593131045,-1.0507589135480964,-0.2372680733571104,-0.8848225624289799,-0.6733336579438839,-0.9999513413988311,-0.2765711067574507,-0.7836160871461431,-0.45406861201952,-0.6212784681964333,-0.4692863073927546,undefined,1491901506709
903d185fccf839df,-0.19412346323483023,-0.36383936739900846,1.2583912666091874,1.3276801029964398,0.11811974579684012,-1.8189086367525675,1.8640346668515053,-0.8490231124843395,-0.13250798861415264,0.11551984697091194,0.12468595467328684,-0.1517185075387014,-0.6607481060606061,-0.586391643142982,-1.0033904264920313,-0.3059687436260114,-0.9068947232503549,-0.6637709134671753,-1.0055068095101805,-0.30362617364301364,-0.7822965318765411,-0.4593549615671431,-0.6401748856389905,-0.45929286855358753,undefined,1491901507801
903d185fccf839df,-0.17471913903817077,-0.3192261544718022,1.356644931584414,1.4667250112985095,-0.025180581318055652,-1.8659546101568443,1.853099932526926,-0.9996593812152282,-0.10767458787400634,0.08049316395658665,0.09984389282861857,-0.18819929058467846,-0.7173225824420678,-0.5937983206141914,-0.9833904104034891,-0.2958656602365295,-0.9032044039841713,-0.679837591753892,-0.998244119752902,-0.28637991582015737,-0.7844937191094556,-0.45790354223087204,-0.6563397512416378,-0.43960001417424266,undefined,1491901508204
903d185fccf839df,-0.05829374594476971,-0.5229206072578585,1.2692373233366792,1.4138922518983215,0.07074383048302,-1.8925778152441903,1.9092252546142343,-0.6510874318669907,-0.17216721459282341,0.29066698377618544,0.03599939080825951,-0.07708818229045865,-0.2560230057932264,-0.5947241714865606,-0.9981272759880473,-0.3221336063873787,-0.9157364480205312,-0.6853852506865841,-0.9954873759127015,-0.3128036489598744,-0.7942514063268244,-0.4668053920084538,-0.6508351146079139,-0.4423106853239932,undefined,1491901509326
903d185fccf839df,-0.0624519238610559,-0.49298279851167925,1.3649394533396948,1.4921091889678857,0.16023967993260965,-1.8816932805263722,1.9308080710195294,-0.46854593292183394,-0.19879591045797362,0.2716506240697211,0.027148703814097175,-0.005313144951939197,-0.3125974821746881,-0.5882433125107843,-0.9928641181218294,-0.33425723579295313,-0.9142727825137222,-0.6794069518717359,-0.9935912402140585,-0.29829831290521636,-0.7877087926755572,-0.47185156755195945,-0.642889485969196,-0.44689407604479625,undefined,1491901509785
903d185fccf839df,0.04288508680334128,-0.5540323875442958,1.191400004330331,1.1805722765259563,0.25672980322431993,-1.901948344942454,1.9101719807185813,-0.5833180037948177,-0.18086912517091921,0.3878872662886785,0.06039786701369604,-0.05116678830436882,-0.3125974821746881,-0.6354608587258881,-0.9854956779673165,-0.3221336205197394,-0.8993415226438349,-0.6952139784766164,-0.9956972804898012,-0.21232879220745782,-0.7795132587730956,-0.4663910824956004,-0.6355080419152302,-0.4462460259805588,undefined,1491901510843
903d185fccf839df,0.05120116659263579,-0.573403911710294,1.0440196339359658,1.1936387242663422,0.27325891867922075,-1.8974203038848165,1.872263326603102,-0.8154386370372365,-0.18581484508798163,0.35292149838113646,0.08253917361845695,-0.04061431816440602,-0.4605614973262032,-0.6354608587258881,-0.986548315430347,-0.35850457939826674,-0.8658159513160949,-0.6947453407995161,-0.99798523767706,-0.15792608498421995,-0.7697150751066266,-0.4642435869199394,-0.6359936830182784,-0.45685068289849656,undefined,1491901511264
903d185fccf839df,-0.06799611507555785,-0.6009936896919801,1.1792776718428348,1.3696155674480186,0.3257879735847137,-1.902628483074945,1.9319625531687872,-0.43019851417786936,-0.12449689353706504,0.2502750683869338,0.08520951898423565,0.034795906223342894,-0.5301916221033868,-0.6187958603172163,-0.9918114806587988,-0.2352474708115748,-0.8459468294810858,-0.6820477886820518,-0.991953986163063,-0.12563554465449783,-0.7552108879456785,-0.4590809783730481,-0.6180321410124376,-0.44713801250627677,undefined,1491901512364
903d185fccf839df,-0.05552185736997714,-0.6009936896919801,1.1142008232039848,1.2057172079899339,0.315337704289342,-1.9079764162212938,1.9115920777315156,-0.5748007261367744,-0.1291394613838945,0.2588491806621172,0.06795349655350576,0.054907107133304586,-0.5258397393048129,-0.6317575523672199,-0.9960219936997522,-0.22312382727363952,-0.8530059754625612,-0.7047197268588684,-0.9994125863740891,-0.1373383632744494,-0.7713387563197325,-0.4677189735610223,-0.6069419723075957,-0.4469923648581405,undefined,1491901512750
903d185fccf839df,-0.051363817475329886,-0.6068638250591978,1.0325354393284718,1.1668690212219928,0.296216594020966,-1.9134338239755682,1.869388949846054,-0.8672741821350578,-0.15821178528021174,0.2505927259510957,0.05565839017611737,0.09933289508911487,-0.678155637254902,-0.6354608587258881,-0.9981272686258135,-0.25949477201980603,-0.8844129118490219,-0.6954736288462628,-1.0028130363745151,-0.18011524426651504,-0.7777409206795419,-0.46706832575711393,-0.5955766081473556,-0.45324324572846847,undefined,1491901515255
903d185fccf839df,-0.051363817475329886,-0.6068638250591978,1.0325354393284718,1.1668690212219928,0.296216594020966,-1.9134338239755682,1.869388949846054,-0.8672741821350578,-0.15821178528021174,0.2505927259510957,0.05565839017611737,0.09933289508911487,-0.678155637254902,-0.6354608587258881,-0.9981272686258135,-0.25949477201980603,-0.8844129118490219,-0.6954736288462628,-1.0028130363745151,-0.18011524426651504,-0.7777409206795419,-0.46706832575711393,-0.5955766081473556,-0.45324324572846847,undefined,1491901515292
903d185fccf839df,-0.051363817475329886,-0.6039287500685908,0.9489558959499018,1.057460582613663,0.2948485963648626,-1.9152902276462451,1.8913189024035941,-0.7218850327815579,-0.15014616505234385,0.15626123529015412,0.04293280088714342,0.12447254222428346,-0.7347301136363636,-0.6354608587258881,-0.9981272686258135,-0.25949477201980603,-0.8961581027522303,-0.6964425693008806,-1.0023372532593695,-0.18234801892353816,-0.7784948460713049,-0.4669833908090317,-0.5969571386385008,-0.4523205881433105,undefined,1491901515410
903d185fccf839df,-0.051363817475329886,-0.5933624654884097,1.0854902096167751,1.189153830423219,0.3077674322772916,-1.9158399281759562,1.885212491428356,-0.7567628873322368,-0.14983542143172618,0.14747229042631385,0.044285570698225744,0.10405901438300154,-0.852230949197861,-0.6169442039001886,-0.9918114512098636,-0.25343293611847767,-0.8740484926008646,-0.6841503254403527,-0.9987338953948471,-0.17969948646832445,-0.770501609753727,-0.4655812684865129,-0.5877593895196268,-0.44803703402498135,undefined,1491901515740
903d185fccf839df,-0.14006866856113803,-0.5622506413599838,1.0299831419454126,1.0644948672963832,0.15768882635488382,-1.9267920114268218,1.8630353373452324,-0.9505010207734423,-0.1710252867712871,0.05780733000743506,0.06102305610107012,-0.03487471477922366,-0.847879066399287,-0.6197216982388111,-0.9844430478665197,-0.21908259391784676,-0.9030837334691261,-0.6848089515661915,-0.981752635739707,-0.14088000634636158,-0.7582098729442925,-0.4625685183470045,-0.6046256413887143,-0.4543506400323356,undefined,1491901516847
903d185fccf839df,-0.1636311706740837,-0.5522713863919202,1.073367877129279,1.0744422776966684,0.17019623235324466,-1.922105582038946,1.8551879964770608,-0.9991124618143684,-0.17869382963228947,0.14479291794407326,0.06624462129315754,-0.007583006740285254,-0.7477857620320856,-0.6382383530645107,-0.986548315430347,-0.20695895037991152,-0.9269186694022012,-0.6942450377894588,-0.9840755770241686,-0.13535196503694882,-0.7625711493660945,-0.46326764954714866,-0.605824867497172,-0.4546627308310869,undefined,1491901517494
903d185fccf839df,-0.18303535684910424,-0.5158763980524095,1.0299831419454126,1.0644948672963832,0.1026397753728874,-1.901757348072271,1.8535285889202173,-0.9953926261405762,-0.22279347354647958,0.17086456550985166,0.04053651139399215,-0.026721316571406067,-0.7347301136363636,-0.6576808846641288,-0.9897062057327376,-0.19281466189935834,-0.9341987702272642,-0.7013632664607007,-0.9855658976002084,-0.13361194079575447,-0.7669867061176963,-0.46346455771739425,-0.5995408059442143,-0.4527861090151203,undefined,1491901518397
903d185fccf839df,-0.11927860710954069,-0.4965049177283999,0.9368335634624056,1.0197575165013877,0.09893692343077609,-1.886747730941995,1.8664461961039076,-0.8815911184667738,-0.2516521702181231,0.15983135948202418,0.007781863529949498,-0.015800129701281293,-0.7347301136363636,-0.6567550596933085,-0.9907588358335344,-0.18675284013039073,-0.930825177009549,-0.6949606606187875,-0.9906455823761978,-0.13873962325052872,-0.766457484571712,-0.4623445344941208,-0.6007829161628917,-0.45089959722707734,undefined,1491901518846
903d185fccf839df,-0.033345644598525105,-0.5176374576607699,0.7052352576725189,0.7318879396465275,-0.04541254929921968,-1.8830605447287254,1.8778595557063926,-0.8280963672364595,-0.3265837778131642,-0.0027116862852393474,0.013427944685074288,-0.08970274979872263,-0.7347301136363636,-0.681752541117848,-1.0012851442037363,-0.14432010187997812,-0.9377868381244275,-0.7103243824895137,-0.9948086848172355,-0.13946334962108725,-0.7725998458389403,-0.46275091375571775,-0.6139945931361976,-0.45319731917105915,undefined,1491901519849
903d185fccf839df,-0.033345644598525105,-0.5505103121695637,0.6975788737972402,0.7143601981285864,-0.03315199844536936,-1.8539636887363584,1.8328530573286843,-1.0901590384611393,-0.40086485625242807,0.08828201700563908,0.007247173198769032,-0.10148152279813452,-0.8870460115864528,-0.6937884081970314,-0.9939167261359249,-0.09986671868694759,-0.9041392452149569,-0.7285379285056929,-1.005163964767908,-0.14639264972189597,-0.7867483528015895,-0.45699183022583634,-0.603893629339988,-0.44248035453477136,undefined,1491901520253
903d185fccf839df,-0.08324226135593113,-0.4548268382477852,0.6899232523328097,0.73519492050011,-0.21484883650788467,-1.8202642561763511,1.8520874566221397,-0.9562596582497416,-0.4397880906262027,-0.22085811738364206,0.02378823040046094,-0.16305266417170497,-0.7390819964349377,-0.6632358668659866,-1.0097062328646305,-0.14836127870632781,-0.8856620588862031,-0.7250801412135436,-1.0218163744219517,-0.1732321395424318,-0.7943457092353883,-0.45225337559493695,-0.6034208788784082,-0.4439794157450786,undefined,1491901521340
903d185fccf839df,-0.10541833610574422,-0.4154967164616829,0.8015750172816378,0.8411925215217316,-0.334975491205895,-1.801064337622023,1.841307882273198,-1.039535157314137,-0.4432696250768896,-0.2668004749870194,0.059217966425938316,-0.15785829397435489,-0.7390819964349377,-0.6613842104489588,-1.0118115077906917,-0.12209337495256094,-0.8683511875945158,-0.7317677296815028,-1.0261054195321742,-0.18120853441823137,-0.7996602191222174,-0.4508595573013002,-0.5996110550520963,-0.4403108458153231,undefined,1491901521761
903d185fccf839df,-0.18442123212568104,-0.3867329815537349,0.7090635766786331,0.7736720429416216,-0.5587819715875472,-1.742956806563723,1.8086930366715814,-1.2253616266974323,-0.4677839231702767,-0.3028588649213025,0.06450329808471687,-0.12190453104822035,-0.13852217023172905,-0.6558292023455519,-1.010758874008778,-0.1524025120621206,-0.8656145674333175,-0.732027379591606,-1.0188497261086413,-0.1958370576056659,-0.798238231317594,-0.44294402128341764,-0.6026938330622038,-0.4469900518061262,undefined,1491901522853
903d185fccf839df,-0.24401994197059734,-0.39025507154246325,0.6305881197922826,0.7088699506915874,-0.5752493718959659,-1.7320746006334555,1.8343231242737539,-1.0483226153369254,-0.4702702623581897,-0.30276773288249925,0.040305585718710256,-0.1400260916741022,-0.20815229500891266,-0.6706425572879704,-1.0065483352000062,-0.15038195191366727,-0.8755996014391941,-0.7248268226248746,-1.0179821216333382,-0.17929912684633403,-0.7918040150553476,-0.44199484003446715,-0.6031821658001509,-0.44838919905546765,undefined,1491901523279
903d185fccf839df,-0.4158856599601701,-0.44191244983313,0.7939191416802579,0.755806549938689,-0.7268091182479282,-1.7167878040738558,1.8278590631700256,-1.120557888940655,-0.4131904523223259,-0.4734933423403064,0.060180959586666735,-0.10849418325263227,-0.2864861853832442,-0.6539775265023623,-1.011811496747341,-0.1948352927096155,-0.8919179893891596,-0.7188421900081661,-1.020605925791614,-0.17297036592945816,-0.7879214148277109,-0.4482644948754373,-0.6083764365561458,-0.4604803039520454,undefined,1491901524428
903d185fccf839df,-0.4269737663458961,-0.5070711730805887,0.7830728308158167,0.7627034764705306,-0.7621713440780298,-1.70746851769003,1.8470250875734258,-1.0019770084243254,-0.36874418998311576,-0.39093908524190185,0.03200463475245773,-0.10524330527116883,-0.678155637254902,-0.6549033579485698,-1.0107588666465441,-0.20695892211518999,-0.8919179893891596,-0.7135351833061716,-1.0174853479571042,-0.1850735437406062,-0.7875006134874598,-0.45031444863816383,-0.6049586917623588,-0.4575557245302903,undefined,1491901524739
903d185fccf839df,-0.46301011209950566,-0.4518917632571783,0.8130594660260813,0.8642981811257374,-0.8756122988098449,-1.7107108179564463,1.8308912249923261,-1.1262564943080762,-0.3600131879258118,-0.41719356167200605,0.023611705668030024,-0.055298457231018665,-0.8304715352049912,-0.6493483822220992,-1.0160220097882946,-0.1746291824600947,-0.8875127704084299,-0.6933014281350975,-1.0050030372307708,-0.19811602728939479,-0.7778123050018328,-0.4519109702294536,-0.6089097256360977,-0.4518836117299614,undefined,1491901525832
903d185fccf839df,-0.4172716732583858,-0.44191244983313,0.851340114717728,0.8916804577993747,-0.8628580351063065,-1.7169322158661204,1.8436405226593,-1.0443145996775045,-0.38345345466877395,-0.3989508946088655,0.028549669519428167,-0.07154000911569082,-0.8087121212121212,-0.6447192185156743,-1.0297062526342897,-0.17867040168352671,-0.8860271243641697,-0.6883237343935941,-1.0131333313838309,-0.19241860228579627,-0.7770908267958964,-0.45365934962687615,-0.5934413741980804,-0.45609843055186144,undefined,1491901526238
903d185fccf839df,-0.46023808550307416,-0.39964734074039776,0.9132270363674154,0.9024494401659359,-0.8663963154156773,-1.7083140301729225,1.8706880811372693,-0.8495948371201728,-0.36386956722746516,-0.30865264467201764,-0.009219370121163663,0.04757142930992832,-0.7869527072192514,-0.6197216852880366,-1.0254957285499855,-0.13219643007732132,-0.8342141660760483,-0.6696035527503436,-1.0194934321771114,-0.15347593476181104,-0.7632298425069269,-0.44858535106966896,-0.5947645984291282,-0.45275192420318233,undefined,1491901527347
903d185fccf839df,-0.5544870587925648,-0.4471955848162225,0.8966387552677019,0.9269729081776906,-0.8255415276751138,-1.699216022125926,1.8435169266103566,-1.0138836505784954,-0.38406012678310797,-0.18177696071924415,0.01874568378135734,-0.01128548976357688,-0.7347301136363636,-0.6160183465524319,-1.0297062489531728,-0.1342170184904962,-0.8407112410422009,-0.6726813633886294,-1.0192135599744927,-0.14449864102623897,-0.7624584948831843,-0.44755130196253007,-0.5969082073879506,-0.4594423659798675,undefined,1491901527753
903d185fccf839df,-0.4408338993280536,-0.41784477645416845,0.9955305581229306,0.9632549994237184,-0.8138364028009081,-1.7461082659783036,1.8592431649407424,-0.982270520639808,-0.3722819288374641,-0.2227435987696467,0.041144142685940965,0.0693891811910526,-0.7216744652406417,-0.6132408651645839,-1.0465483857826752,-0.21100015547098275,-0.8323904259457147,-0.6772030855618538,-1.027826633839478,-0.18159349523129317,-0.7758755340149625,-0.4380183284210208,-0.5785337187378062,-0.4711324556750714,undefined,1491901528871
903d185fccf839df,-0.4962745002675032,-0.3902550423144709,1.0548659448004072,1.0554391064089628,-0.794386149827197,-1.755336712120973,1.8932465582939035,-0.7615135132543065,-0.36849547903793944,-0.27588655906466314,0.023297971015317075,0.08161380959039875,-0.843527183600713,-0.6002791601638058,-1.0391799345848116,-0.20493829130493282,-0.8316032335957555,-0.6702368477160426,-1.0192835277529382,-0.15841883439037577,-0.7661454682222859,-0.4359357361226836,-0.5793763666747873,-0.4676776349417865,undefined,1491901530797
903d185fccf839df,-0.4962745002675032,-0.3902550423144709,1.0548659448004072,1.0554391064089628,-0.794386149827197,-1.755336712120973,1.8932465582939035,-0.7615135132543065,-0.36849547903793944,-0.27588655906466314,0.023297971015317075,0.08161380959039875,-0.843527183600713,-0.6039824924240231,-1.0381273081651317,-0.21100015547098275,-0.8262977343149944,-0.6681216444945737,-1.017849181504868,-0.15110457276300254,-0.7636268313611444,-0.43646820048411683,-0.5803219203312305,-0.46836495730898414,undefined,1491901530850
903d185fccf839df,-0.4214297476584428,-0.3374237217115384,1.2430787529955794,1.2044739842025278,-0.7876181612919149,-1.772014064692513,1.8895385333151196,-0.8104119174425187,-0.34097738192255617,-0.2574954948980501,0.06378791881987235,-0.036099100178507995,-0.9436204879679144,-0.6252767063422181,-1.0454957630441122,-0.18675286839511226,-0.833778051104562,-0.6728333543912334,-1.0274138223586606,-0.14697778927569943,-0.7655591263907087,-0.4353484665675906,-0.5859554371832115,-0.47436754063617265,undefined,1491901531846
903d185fccf839df,-0.3937093781778986,-0.3033768225925056,1.153757239381737,1.2069711389035072,-0.728537117454939,-1.7889569510594934,1.858917072453816,-1.0150157354609084,-0.3801611771096945,-0.1971475493670192,0.06022593365430511,-0.02548603213126108,-0.8696384803921569,-0.6317575523672199,-1.0444431292621985,-0.1604849505089846,-0.8235029332314314,-0.6703508402371559,-1.029841715653346,-0.1360448937627253,-0.7639611149366035,-0.43433750857877,-0.5801602913941096,-0.4748974356818694,undefined,1491901532235
903d185fccf839df,-0.3008464181866237,-0.2933975091684573,1.273065388205844,1.3164781565447268,-0.6224092973765318,-1.8081755031905127,1.8909744101963573,-0.804601243155367,-0.3694172911098847,-0.10392544847986915,0.07346773795478988,0.010949560291404961,-0.9175091911764707,-0.5956499964573809,-1.0465483968260259,-0.11805214159676816,-0.8156896137711288,-0.6596481655663167,-1.030492418856897,-0.13222608009978468,-0.7569481209273796,-0.42918414014969863,-0.5946615038930013,-0.47307679542024783,undefined,1491901533341
903d185fccf839df,-0.2287737266794046,-0.31100795911209894,1.1831057367119995,1.2749538482667218,-0.5879110710499095,-1.810996211575734,1.8726262520513461,-0.920292571373533,-0.3657358708757128,-0.018914681842977434,0.04011419043220483,-0.024191341661207733,-0.8957497771836007,-0.6021308489577699,-1.053916825937188,-0.1968558669904296,-0.8235029332314314,-0.6654808068980513,-1.028456346946837,-0.16206826791318035,-0.7647509653018214,-0.42676161000247853,-0.5930573215463772,-0.47596641929072486,undefined,1491901533764
903d185fccf839df,-0.1539289395649345,-0.35209911127856924,1.1831057367119995,1.2186428585253959,-0.5203854725390268,-1.8449239106509518,1.8608578642674207,-1.0281815007521644,-0.34781600564689963,0.018482293005959924,0.01715808773828648,0.05755872397773969,-0.8174158868092692,-0.6104633449244122,-1.047601015883472,-0.2736390322356377,-0.8383819201375006,-0.6646321926778207,-1.026028453529811,-0.23505689792849838,-0.781836906102067,-0.4299736958174207,-0.5871643148474675,-0.4704106179479268,undefined,1491901534863
903d185fccf839df,-0.12620867360061944,-0.37616671158754994,1.1977803665825548,1.2317046910355485,-0.49372494562326624,-1.8736970025619215,1.8819830969650855,-0.9360666281650468,-0.2857974337681901,0.05287191429687879,0.06608026423544616,0.010822054720356881,-0.7956564728163993,-0.6178700159202343,-1.053916825937188,-0.27768025145906966,-0.8467286305079516,-0.6614467220247026,-1.033081239138184,-0.2336248427039285,-0.7825421054080098,-0.4331495323741896,-0.5897991863103178,-0.47635417578490197,undefined,1491901535268
903d185fccf839df,-0.023643482500195368,-0.37792775658191413,1.2028844530747744,1.2317046910355485,-0.4812278234874659,-1.888038128135885,1.9011859407120206,-0.8212575220614045,-0.25725037812814644,0.14442427937996494,0.08381899622013698,0.01689535654223994,-0.7477857620320856,-0.6197216852880366,-1.0507589135480964,-0.3180923730315859,-0.8763150017167325,-0.661719038807687,-1.031492963540192,-0.26517625703296244,-0.788237532139357,-0.43584566150995696,-0.609390360180924,-0.4839672556956521,undefined,1491901536363
903d185fccf839df,-0.012555376114469349,-0.3920161165368274,1.2526490422369656,1.2317046910355485,-0.4842929611689203,-1.8893285267993922,1.898230037428795,-0.8455674204622091,-0.26421862775172356,0.1604212486355254,0.08202665393713983,0.01668834074941914,-0.7477857620320856,-0.6326833773380401,-1.0486536459842688,-0.3140511538081539,-0.8638791595414785,-0.6656834615608077,-1.033228172662076,-0.2654996244007969,-0.7912031708289705,-0.4333614728304406,-0.6065929579009454,-0.4823245020737378,undefined,1491901536761
903d185fccf839df,-0.07076800365035041,-0.3972992515199199,1.2309566746450324,1.2069844542328938,-0.4626415693450592,-1.890004006803637,1.9209804939046018,-0.6920555932424713,-0.2592247936396032,0.15269918801110743,0.07228841379894511,0.05583284589908055,-0.8087121212121212,-0.6456450240603328,-1.0444431034943802,-0.35244264457041297,-0.863665836363967,-0.6794069506702795,-1.0353062255413856,-0.29027572277385194,-0.8017992452742697,-0.44060201396033516,-0.6202026099280539,-0.47933522218833746,undefined,1491901537981
903d185fccf839df,-0.07076800365035041,-0.4002343265105268,1.2054362421839349,1.1313506058887464,-0.4785329707953696,-1.892796764867312,1.8663883519504472,-1.0575844407443344,-0.2729431468553411,0.13696231886872526,0.06700871802796406,0.06871462167603587,-0.7303782308377896,-0.6493483563205501,-1.0444431034943802,-0.3564838920585665,-0.8741468775271757,-0.684314981892915,-1.0366915940582655,-0.3135581724501847,-0.8084738175672876,-0.44157249727826103,-0.618855720449055,-0.48299942597635687,undefined,1491901538232
903d185fccf839df,-0.12620867360061944,-0.42899813448845564,1.0006348987520997,1.002245747866593,-0.49970093443231156,-1.8906235845724013,1.8904931535437053,-0.9075481837192849,-0.29811133460500683,0.08570946262242042,0.06427775889453909,0.08064509182436727,-0.7564895276292335,-0.6493483563205501,-1.040232583091193,-0.35446326124830935,-0.8824884653430236,-0.6814968215135422,-1.0330042749097683,-0.30168597113225876,-0.8056793051608866,-0.43646828061700554,-0.6116656358592218,-0.4854913933156984,undefined,1491901539329
903d185fccf839df,-0.12620867360061944,-0.4243019560474999,0.9872365446415485,0.9401011926484689,-0.5113032004196333,-1.8789331325352303,1.888502388655399,-0.911454947939916,-0.3150156471372138,0.14578812458784254,0.0757610573454412,0.009048476108046676,-0.852230949197861,-0.6419416982755026,-1.0349694178627413,-0.37062823706856274,-0.8744889346414452,-0.6746572425080588,-1.03242353949078,-0.33152815864948354,-0.8079165589455279,-0.43463893365263756,-0.6062156193942138,-0.484441756935834,undefined,1491901539790
903d185fccf839df,-0.2523359527490724,-0.4084525510982224,0.9406616283315703,0.9199004769868732,-0.5866767875173224,-1.8678436241609973,1.8795873454859433,-0.9784956571720387,-0.34886260466976743,0.05678053609558624,0.05858415897085161,0.012272103974862947,-0.8696384803921569,-0.6428675426724847,-1.0307588900973204,-0.3585044663393806,-0.9089732559759834,-0.6657467907152117,-1.0255106904180278,-0.3152366032192269,-0.7972743821401526,-0.43796803238257864,-0.6162727730162066,-0.4905681946667519,undefined,1491901540837
903d185fccf839df,-0.34242681713309625,-0.41549674568967526,0.9202452823626921,0.9134431432647696,-0.6176573077253796,-1.8654771169308186,1.8910217424686153,-0.9108771912868474,-0.33198750093261126,0.04281298950048508,0.05274814988416838,0.080030478781003,-0.8348234180035651,-0.6400900548092494,-1.0307588827350864,-0.35648386379384495,-0.8895675554791833,-0.6594898421792386,-1.0230478130995444,-0.3197329499895827,-0.7946659253143968,-0.4385409916866572,-0.6136836509381025,-0.48875304386224083,undefined,1491901541268
903d185fccf839df,-0.2648100034221947,-0.4266500306539816,0.7996608577785808,0.8431449926761413,-0.6533589620598816,-1.874614722237961,1.864642155117934,-1.106839613518528,-0.3398278881745542,0.11750097886130123,0.04828215460847356,0.0540405594387128,-0.7260263480392157,-0.643793367643305,-1.0276009850704622,-0.3362778383384888,-0.891732796175592,-0.6659621108722197,-1.0148125665264176,-0.30946218707884426,-0.7928275985592678,-0.4383915892979687,-0.6151798183349407,-0.4982188031961057,undefined,1491901542348
903d185fccf839df,-0.2661960857312299,-0.4266500306539816,0.7837104604219199,0.8783184123724258,-0.6349681360351725,-1.8724531882582856,1.9013884340074383,-0.8576105453042338,-0.3570058743536264,0.10499768842578437,0.032099742749876134,0.05544809143024135,-0.8609347147950089,-0.6474966934281351,-1.0276009850704622,-0.3261748114784499,-0.9019465173439121,-0.6773044130925521,-1.016603750306593,-0.30450388756436625,-0.798738769641368,-0.44589926901270155,-0.6124040156755988,-0.50267425118204,undefined,1491901542765
903d185fccf839df,-0.24263379065074264,-0.4313461506389527,0.7403259793750031,0.7660206943463708,-0.7112160080353022,-1.8750223388066194,1.8694099914163287,-1.0911812283794327,-0.3113369035161939,0.021232631569540996,0.04514693539029408,0.04177606211157155,-0.8130640040106952,-0.6447191926141252,-1.0328641576611477,-0.28172144241778013,-0.9219669635114819,-0.6798819220163604,-1.027308871125304,-0.2686101116194792,-0.7973494343823607,-0.445030664817982,-0.5989130032044498,-0.5047129644428342,undefined,1491901543840
903d185fccf839df,-0.23708984097410885,-0.4313461506389527,0.7116153657877934,0.7507838592582383,-0.7173874254101623,-1.873382554571209,1.8764815397389638,-1.0457046696554724,-0.3136235350528812,0.0441712173269369,0.037512219377231634,-0.004859565106384521,-0.8000083556149733,-0.6512000256883524,-1.0328641576611477,-0.27970083987224453,-0.9260510959033168,-0.6778997107062401,-1.0268680720400731,-0.2736146068876278,-0.7972148504003841,-0.44536085005409604,-0.5905724866277674,-0.5065080518888767,undefined,1491901544378
903d185fccf839df,-0.2675821335348554,-0.4460215840479721,0.7116153657877934,0.7507838592582383,-0.7707599042199622,-1.876545661368355,1.8705776241541872,-1.1013111521325345,-0.2871184791415433,0.03120402617209048,0.04081328383412523,-0.02216992531682885,-0.6476924576648841,-0.6484225378251172,-1.032864150298914,-0.27161838729301974,-0.9173200582017196,-0.6864111873020982,-1.027987561914917,-0.2723519351956956,-0.8011905944491474,-0.4468359481861314,-0.594238062724627,-0.5058857364039622,undefined,1491901545502
903d185fccf839df,-0.2758982133241499,-0.4460215840479721,0.7550001009716597,0.812061888714554,-0.7957027190961334,-1.8783578093557196,1.8687893577989079,-1.120649647080074,-0.2819190122855342,-0.003738715921137739,0.05785934457687485,-0.03221775548339184,-0.6172292780748664,-0.6382383595398979,-1.0349694178627413,-0.27970083987224453,-0.9083644002066888,-0.6828140754262195,-1.027539766141151,-0.2754162256644964,-0.7997019117193643,-0.44613629739234634,-0.597970191595117,-0.5058753240660625,undefined,1491901545746
903d185fccf839df,-0.38539336739942354,-0.5047231130881031,0.7256518577783466,0.8305801124090906,-0.8900739874975807,-1.8745262102882916,1.8867903818867173,-1.0288484829818492,-0.27949112318483327,-0.09722168832589688,0.04784984887068463,-0.023143975768031285,-0.2212079434046346,-0.691936738829229,-1.0318115275603508,-0.26555660792113445,-0.9191246720400885,-0.7032504849223133,-1.0334800588629516,-0.29250850188689936,-0.8167900882452556,-0.437184158463816,-0.5812282765952251,-0.5017163792860714,undefined,1491901546824
903d185fccf839df,-0.37984931420656054,-0.5076581880787101,0.7562763767316639,0.7507838592582383,-0.9258270687948784,-1.8785464772698262,1.8730654224208836,-1.1307032581630247,-0.2730003068425013,-0.09252077707788513,0.052028711887419796,0.004827543720211659,-0.2734305369875223,-0.6993434292512128,-1.0297062673587571,-0.25747419773899194,-0.9110815027679801,-0.7021802173190275,-1.0329273109076842,-0.2624045410528716,-0.8111077319277094,-0.43558084132768615,-0.5788518445110721,-0.49304761095096555,undefined,1491901547236
903d185fccf839df,-0.4075695801708756,-0.5258556822484655,0.7562763767316639,0.7507838592582383,-0.9689344241648611,-1.877381857106846,1.905527750944348,-0.9282354694532865,-0.2627145291388108,-0.2997202484792518,0.058893009675591565,-0.01836688598635122,-0.2734305369875223,-0.7178600711261378,-1.0244430947680718,-0.2635359488461557,-0.916729977663888,-0.7117746272892562,-1.0304644337482445,-0.27265990590857064,-0.8153842221485323,-0.4310041657055042,-0.597514656095028,-0.4945055696370456,undefined,1491901548368
903d185fccf839df,-0.35628701912607325,-0.5270296830167158,0.7148058010508548,0.7257229242224189,-1.0101183562831955,-1.8777405595395782,1.9145637619305662,-0.877471204430041,-0.2663245148773784,-0.39243160826007806,0.060904300795185703,-0.07155143817244451,-0.5954698640819964,-0.7317475881469616,-1.0297062526342897,-0.2635359488461557,-0.9232299954795494,-0.7192728330019282,-1.0355791025174468,-0.2759859695864762,-0.8213992689336704,-0.4316773894345566,-0.5979554340424753,-0.49664682103720365,undefined,1491901548740
903d185fccf839df,-0.36183103781352655,-0.5047231130881031,0.8264573118627335,0.8874245428955663,-1.044050870270962,-1.8768973757336977,1.9412142090865463,-0.7077001710178445,-0.26330525882121164,-0.3505648913879505,0.06350923194130187,0.01248616869997841,-0.7521376448306596,-0.7474867874863623,-1.0276009997949298,-0.2615153604329809,-0.935182384944376,-0.7276956478270996,-1.0302615261104797,-0.29318603282688277,-0.8246901700059219,-0.4425684908946635,-0.6028162412096361,-0.4952039378641926,undefined,1491901549822
903d185fccf839df,-0.342426851638506,-0.4935698135098006,0.8130594660260813,0.8523483993956185,-1.0430634415788063,-1.8857857527593829,1.9207963940443635,-0.8483550627523988,-0.25667068398112197,-0.37922514043415556,0.07302182809431892,0.08139871808279928,-0.8739903631907309,-0.7511901197465797,-1.026548369694133,-0.24737110021714925,-0.9440858938675871,-0.7293105484703712,-1.031884786172698,-0.30085445882068135,-0.8259684950340529,-0.4427563251291017,-0.6066131338548205,-0.4939384428189363,undefined,1491901550242
903d185fccf839df,-0.38123529299936654,-0.5587285513712554,0.8264573118627335,0.8660183775409375,-1.0898530794933432,-1.8935933631286572,1.9210646434253513,-0.8722440910241435,-0.22054005152721512,-0.3460197608738645,0.1016952826376874,0.07598821653770879,-0.9218610739750446,-0.7326734325439437,-1.0318115128358833,-0.23726808748947117,-0.959215024172126,-0.7310837729768742,-1.0341657465184948,-0.3065210868526131,-0.827931931404057,-0.43922675077080886,-0.6079811582310892,-0.49987952302770416,undefined,1491901551317
903d185fccf839df,-0.3687611733154248,-0.5393570418192535,0.8717562065496568,0.9011100418547102,-1.0731079644186394,-1.895139978088914,1.9257220300733167,-0.8407817561895045,-0.2092659635631364,-0.32820499825207866,0.1046485532919666,0.06344433303625191,-0.9131573083778967,-0.7280442623621316,-1.031811520198117,-0.251412333572942,-0.9565180006507707,-0.7329076610327965,-1.0327034131614934,-0.32084164047146874,-0.8303594508018421,-0.4365680488914139,-0.6116706215447413,-0.4967013267378653,undefined,1491901551764
903d185fccf839df,-0.38123529299936654,-0.5006139934872573,0.8870684660263155,0.9923794671845159,-1.0817788065919565,-1.8927688128414808,1.935733698668308,-0.7711680656121873,-0.19550106599470343,-0.3761895663435854,0.1065500120236268,0.00416956476959174,-0.8174158868092692,-0.7484126059817953,-1.0223378345664782,-0.25747415534190965,-0.9567066827726918,-0.7348012109431867,-1.0320177256955791,-0.318039122807903,-0.8326009138221255,-0.436019220985872,-0.5966205675310319,-0.4920783432730769,undefined,1491901552859
903d185fccf839df,-0.3923234338905023,-0.5053101134722283,0.9910646095107132,1.0371285645309962,-1.0713285380647848,-1.8969497973177218,1.9468341058972494,-0.6989874411548791,-0.19346589459283767,-0.41435542431854994,0.09488713053990541,0.029776914251503656,-0.8217677696078431,-0.7511901003204179,-1.0223378345664782,-0.2453505118039744,-0.9552969228047113,-0.7462828380794483,-1.0320597064752002,-0.3131732143161226,-0.8366567324597831,-0.43853020161835293,-0.6042053691105397,-0.4922052298218357,undefined,1491901553271
903d185fccf839df,-0.4463780215317361,-0.5000269784891359,0.8979150310277062,0.9648601866771829,-1.0264726128579134,-1.8888510333436825,1.9780919791967553,-0.46702216550445064,-0.17058505141506017,-0.48666269810892304,0.09309976530865921,0.07950971328738132,-0.9262129567736186,-0.7465609430893803,-1.0170746619757927,-0.23928869003500677,-0.9440765020496765,-0.752767772449391,-1.0341517528722732,-0.31534439501635064,-0.8384561624367831,-0.44524547383816654,-0.6154811573314846,-0.4883995347917222,undefined,1491901554314
903d185fccf839df,-0.48241433277993595,-0.4900477235210723,0.9451278310807372,0.977304223076868,-1.0493582904549452,-1.8860582753669883,1.9773793029818683,-0.47223036988945344,-0.17665350532111038,-0.5268312660638959,0.08340886381340427,0.11212181774653943,-0.8957497771836007,-0.7289701002837263,-1.0181272920765896,-0.22312382727363952,-0.9487140246204576,-0.7569601811306045,-1.037867059551779,-0.320949429253035,-0.8421526866006811,-0.4431185975795537,-0.6134427757785362,-0.48686183135310207,undefined,1491901554763
903d185fccf839df,-0.4144996811673641,-0.4237149702773708,0.813697349769134,0.9411645606905702,-1.0138006366351788,-1.8621579526554264,1.9753122753643986,-0.4444637548706546,-0.16766515825334594,-0.5876847274612907,0.059092676003362585,0.14461891664677237,-0.517135973707665,-0.7354509268825663,-1.0097062365457474,-0.2029177311564795,-0.9358541171685159,-0.753844372520201,-1.0367755568837396,-0.3118181516553417,-0.8385087331495074,-0.44047304008783134,-0.6110851232460282,-0.48438699395613394,undefined,1491901555843
903d185fccf839df,-0.37984924519574104,-0.4066915353318506,0.813697349769134,0.9411645606905702,-0.9984955201141126,-1.8592883297578144,1.9691611582540394,-0.4782000641922505,-0.15076580742783907,-0.5544300865804324,0.07323658537728302,0.13358709394252524,-0.321301247771836,-0.7335992510393767,-1.0139167569489347,-0.1907940734861835,-0.9374857592792298,-0.7482080526805421,-1.0372303494989676,-0.31823930358145336,-0.8365196483906849,-0.4427658289912185,-0.6091962274976426,-0.48645453539803385,undefined,1491901556294
903d185fccf839df,-0.35351499252964175,-0.36501335355326275,0.8564442012099476,0.9647771619936116,-0.9730795632501918,-1.8304267270745909,1.9710414693018288,-0.42235607609319553,-0.13406649052238037,-0.5257019283986744,0.07203311497749747,0.11495782413031432,-0.08194769385026737,-0.7419317664321808,-1.0170746582946757,-0.19281464776699758,-0.9297606153966158,-0.7442879601732799,-1.0368735119301598,-0.3068136563871933,-0.8339823455062255,-0.4370805092520076,-0.5934103580527077,-0.48789902795867374,undefined,1491901557330
903d185fccf839df,-0.4061835323672501,-0.34388082823488897,0.870480184926602,0.945532051883596,-0.9696441421157799,-1.8236789209250006,1.9349473806237865,-0.6554289225801403,-0.1395552627533685,-0.4677837204853118,0.08120121115848826,0.12259053356221777,-0.15592970142602494,-0.7447092607708033,-1.0191799184962693,-0.20089708621386157,-0.9248931164733771,-0.7394559241751132,-1.0404838663914617,-0.3035183890347633,-0.83245213912586,-0.43491161513798504,-0.5975529962310963,-0.4875083443246242,undefined,1491901557786
903d185fccf839df,-0.4061835323672501,-0.36501335355326275,0.8513398605807786,0.9369193438449759,-0.9583710200981227,-1.8279577338244037,1.9354864898100728,-0.6501878559404993,-0.15270455942391795,-0.5196400898388003,0.05901777845036895,0.0973026634110864,-0.7738970588235294,-0.7391542591427837,-1.0065483278377725,-0.19281464776699758,-0.9372802218403671,-0.7397662386256987,-1.033592007671818,-0.30729100785947033,-0.8322606033588553,-0.4318896626646277,-0.5870107741677723,-0.48564912322566167,undefined,1491901558935
903d185fccf839df,-0.39925346587617133,-0.3397717524760316,0.7900908226741439,0.8671840605538498,-0.943240759360433,-1.8164373166646555,1.9260560051617424,-0.700467721640521,-0.15698560617633586,-0.48395990378643117,0.07286283679559757,0.09856118590960625,-0.8826941287878788,-0.7391542591427837,-1.0044430565928282,-0.23120626572050354,-0.9474430717773428,-0.740944166160767,-1.032108683717026,-0.31976374907483174,-0.8346270412884418,-0.42755946493144265,-0.5922145703538572,-0.4860799364729966,undefined,1491901559280
903d185fccf839df,-0.3867793806976393,-0.3702965031503514,0.7722267740883249,0.836574933110472,-0.8887779949721144,-1.825528337740133,1.9121311921554112,-0.7909617774936257,-0.16633258393783348,-0.5933751514392205,0.0635746317257583,-0.020854592039950923,-0.9566761363636364,-0.7437834228492086,-1.0097062291835135,-0.20089707208150082,-0.955012015106386,-0.7352001861291024,-1.0329413041929991,-0.28527123077704436,-0.826340942000216,-0.4318330008265785,-0.5875317539587965,-0.4943665594929491,undefined,1491901560342
903d185fccf839df,-0.36044512803154,-0.4002342972825345,0.7377739361288933,0.7733836769471163,-0.9123630992075641,-1.8199777605729854,1.931399779417654,-0.6614835116852815,-0.15587066945753233,-0.6080372013043972,0.04118884823765194,-0.09646163215864569,-0.9392686051693405,-0.7345250824855842,-1.008653591720483,-0.2130207438841576,-0.9517105500274339,-0.7275436573283323,-1.029037083778867,-0.2834696131310098,-0.8214611940508837,-0.4308256864253112,-0.5896351185080497,-0.49215479117443817,undefined,1491901560754
903d185fccf839df,-0.3923234338905023,-0.3738186223670721,0.7722267740883249,0.836574933110472,-0.8928819885005702,-1.8190530518791064,1.9335062535633174,-0.6424587755935091,-0.1559526552999557,-0.5878643604633952,0.032285531444209065,-0.10295339598935908,-0.843527183600713,-0.7317475816715744,-1.0107588666465441,-0.19483527857725472,-0.937523490868586,-0.7258527614384452,-1.0269590309913132,-0.27384558433667366,-0.8190818561804541,-0.43018418195837815,-0.58537380159295,-0.49290409858859086,undefined,1491901562884
903d185fccf839df,-0.3923234338905023,-0.3738186223670721,0.7722267740883249,0.836574933110472,-0.8928819885005702,-1.8190530518791064,1.9335062535633174,-0.6424587755935091,-0.1559526552999557,-0.5878643604633952,0.032285531444209065,-0.10295339598935908,-0.843527183600713,-0.7317475816715744,-1.0107588666465441,-0.19483527857725472,-0.937523490868586,-0.7258527614384452,-1.0269590309913132,-0.27384558433667366,-0.8190818561804541,-0.43018418195837815,-0.58537380159295,-0.49290409858859086,undefined,1491901562903
903d185fccf839df,-0.4519220747245991,-0.3726445923708293,0.7441540442441678,0.7900822892036244,-0.8828945769142792,-1.8117648624810436,1.9201626161234726,-0.7231100337901579,-0.1559484239404325,-0.6034858547474403,0.02600752831653624,-0.04889760607641504,-0.7173225824420678,-0.7391542526673964,-1.0086535990827168,-0.1766498415350734,-0.937523490868586,-0.7289179063886962,-1.0278336323325468,-0.2684407295676956,-0.820840276468673,-0.4324211449452278,-0.5800142591900733,-0.489738999630992,undefined,1491901563341
903d185fccf839df,-0.4117275510547034,-0.3221613317603823,0.628674214426175,0.6781128449857375,-0.8511426296663991,-1.7993733101790894,1.953124602067421,-0.4827046639684622,-0.15787706360458303,-0.6217294594577976,0.022229462056759297,-0.0897122924029843,-0.6825075200534759,-0.7317475816715744,-1.0128641342103717,-0.1604849505089846,-0.9203668902363351,-0.7299755080049674,-1.026483247943455,-0.2804515167061659,-0.8231637814772045,-0.43227786386451234,-0.5758236634334453,-0.48903684674898734,undefined,1491901563744
903d185fccf839df,-0.37153316540644654,-0.3180522267735326,0.6784390577253157,0.7136138982094751,-0.83391408753307,-1.7924671155542926,1.9128701601198042,-0.7327673058997562,-0.15371822019693263,-0.6396997405782648,0.03127557782643611,-0.0934937218657968,-0.5824142156862745,-0.7178600905522997,-1.025495710144401,-0.16048493637662384,-0.924353890714804,-0.716074696682922,-1.0282814283204098,-0.29876026889375534,-0.8206421203970196,-0.4367527945530209,-0.58416436868976,-0.4760941948531615,undefined,1491901564856
903d185fccf839df,-0.3257947265653267,-0.29809359992543605,0.6618507766256021,0.7336640647836787,-0.846514067211404,-1.7892411196493598,1.9145111595761624,-0.7198900962619845,-0.16012104299781668,-0.6435101439180402,0.04701616094024006,-0.08375743428525957,-0.673803754456328,-0.7178600905522997,-1.029706237909822,-0.17867040168352671,-0.9207574606481841,-0.7200011217186116,-1.029470886083806,-0.30647489045275184,-0.8238220417846749,-0.44054423121518055,-0.589171698329179,-0.47088406203417427,undefined,1491901565277
903d185fccf839df,-0.38955137278866103,-0.32157419985029156,0.4985195006006773,0.5691169408000935,-0.935660205958466,-1.7972583599708039,1.884036973993954,-0.9503891270473,-0.10834403834540801,-0.55500479748397,0.06856499217456073,-0.1282197566311099,-0.8696384803921569,-0.7095275881102702,-1.018127281033239,-0.2049383337020151,-0.9407297257455592,-0.7385059827342377,-1.0329203136686131,-0.3151904095252899,-0.8331182378120484,-0.43437149390957447,-0.6134060913273425,-0.4686820542655597,undefined,1491901566344
903d185fccf839df,-0.3881653594904453,-0.36149133663451527,0.4863971681131811,0.5494330194096322,-0.9670315822738857,-1.8133580611257096,1.8899987431598875,-0.9409231334304354,-0.13507463804545192,-0.6144641128598407,0.05606160159562278,-0.13159296182466068,-0.8000083556149733,-0.7298959187791594,-1.0139167532678177,-0.1604849505089846,-0.9545721658007478,-0.7469541298490286,-1.0352502514886837,-0.31369676068048236,-0.8372084803790499,-0.436307861960612,-0.6109689969936124,-0.4703840749401889,undefined,1491901566732
903d185fccf839df,-0.32025063886705396,-0.43193313640908176,0.5986875792159103,0.6076487614915607,-0.9935789656720018,-1.8242216326819594,1.8986113594547847,-0.9030970750259294,-0.10402616317869436,-0.5942692795362815,0.08014698803020903,-0.07878857953541853,-0.6389886920677362,-0.7502642818249848,-1.0181272883954726,-0.20493829130493282,-0.9641282104351674,-0.7446932688952963,-1.0388815963764986,-0.29277027272663747,-0.8327622309850519,-0.44044505632499087,-0.6305642965598218,-0.48034887366702017,undefined,1491901567821
903d185fccf839df,-0.3521290482422455,-0.4466086282740858,0.6369679737706075,0.6816951351573259,-1.0316463296891858,-1.8383251761157384,1.9041523611140567,-0.8902108139994537,-0.11909706220133989,-0.633982637005192,0.0670478343577599,-0.14207840101969985,-0.5824142156862745,-0.7530417567374457,-1.0244430837247211,-0.2332268117365961,-0.983220165978083,-0.7501522665556015,-1.0415403846075089,-0.3124648846005233,-0.8399477607298889,-0.4435337597193587,-0.635174097455008,-0.4842481536111929,undefined,1491901568291
903d185fccf839df,-0.4671681519941529,-0.4783074089446484,0.6848191658405901,0.698162120717216,-1.0935765114757836,-1.8630244292186247,1.89730434556207,-0.9755514183033416,-0.14526082569349305,-0.6361675071339067,0.05365352898399495,-0.16136054992666382,-0.5650066844919787,-0.7502642559234358,-1.02128518237898,-0.23120620919106047,-0.9963999183634359,-0.7630461397055982,-1.04778853664086,-0.3063363030705796,-0.846831697307095,-0.4420995287279315,-0.6354262413644588,-0.48634104014964946,undefined,1491901569340
903d185fccf839df,-0.5323109150319322,-0.56166359713387,0.6707829279869864,0.6599886038232727,-1.0953765078593598,-1.8756512342860907,1.903810484568739,-0.9461179008049863,-0.16655615128852372,-0.6761052625533869,0.023522443233848132,-0.17896235168030403,-0.2647267713903743,-0.7502642559234358,-1.0254957175066348,-0.2433298668613565,-1.0153560570670663,-0.7614565707982794,-1.049432787196879,-0.31394313487872355,-0.848445700358732,-0.44354065712823737,-0.6335956813711827,-0.48741204893595325,undefined,1491901569746
903d185fccf839df,-0.5600311809962473,-0.5698818217215657,0.6133614466756174,0.6076487614915607,-1.1454472802344142,-1.9040982324510531,1.888173664793726,-1.0957782877950657,-0.17032986511269727,-0.6330106343645349,0.027516482802693105,-0.17860351129970053,-0.07324392825311943,-0.7576709528208069,-1.0423378506550205,-0.1928146336346368,-0.9997162370026973,-0.7702466963124462,-1.0620900181523096,-0.29501844584256903,-0.8552968167723208,-0.43866740125414877,-0.624119203839594,-0.48416631290403883,undefined,1491901570848
903d185fccf839df,-0.5794353671712678,-0.5781000316952651,0.6076194764403451,0.6311762251039045,-1.1517215547036914,-1.9026704086116277,1.8984088693019323,-1.0298760313771258,-0.1658152947155307,-0.5918955677904304,0.022976421519938173,-0.17554904659059925,-0.0601882798573975,-0.7502642818249848,-1.0444431182188478,-0.2029176887593972,-0.991800966247148,-0.7671435537001309,-1.0656933757476816,-0.2965582900910269,-0.8547884227971981,-0.43810153496253784,-0.6187360639515505,-0.48577944270916396,undefined,1491901571254
903d185fccf839df,-0.7041767020323244,-0.6397367234099801,0.5508366412828772,0.5298213415344416,-1.1932449127017426,-1.923191005416956,1.891718641957764,-1.1090538633512397,-0.1924372249341178,-0.5584094653747539,0.0373062745602241,-0.20673711886355656,-0.3604681929590018,-0.7595226092378347,-1.0486536459842688,-0.1928146336346368,-0.9803021969946926,-0.7750977308980318,-1.0735577912587053,-0.2828074780786338,-0.8602917390564447,-0.44575036096284465,-0.6111980623495319,-0.4820496563273419,undefined,1491901572364
903d185fccf839df,-0.7041767020323244,-0.6127339750404116,0.4736369518826322,0.45563331289698716,-1.2370619814694581,-1.913170619014793,1.8698123560601143,-1.2582407893789396,-0.193371289290654,-0.5201278106083754,0.055125734254630056,-0.2251104810844381,-0.5345435049019608,-0.7493384374280028,-1.0444431108566141,-0.16452615560005585,-0.9687611189031139,-0.7769152857722,-1.065735356649644,-0.1962528183655644,-0.8370728134223017,-0.4498085113385532,-0.6463476246198032,-0.47178788171508546,undefined,1491901572749
903d185fccf839df,-0.7346690636038905,-0.6667393694815754,0.36070916531074915,0.3733112787994589,-1.2748413473379216,-1.920838475384357,1.8871164817062969,-1.1646721561865665,-0.23146276034848856,-0.5330102421475057,0.06648040425650295,-0.1781790646249679,-0.5780623328877006,-0.7511900873696433,-1.0433904770747002,-0.12815523911861088,-0.9368554054380769,-0.7877256202806981,-1.0636363136557914,-0.12505040702580494,-0.8247877664582233,-0.44680792951315595,-0.6419327071203901,-0.46412661916090453,undefined,1491901573850
903d185fccf839df,-0.722194909414539,-0.6702615179262884,0.36070916531074915,0.3733112787994589,-1.2802619095271555,-1.9239689726322151,1.8857226848230424,-1.1791784682981843,-0.23388406551046012,-0.5324678919082962,0.06531465905777836,-0.15611980977522913,-0.1994485294117647,-0.7511900873696433,-1.0433904807558172,-0.118052212258572,-0.9465897984085692,-0.7881689263270423,-1.0675055501623498,-0.13100960540005552,-0.8271447997360214,-0.44693463846487963,-0.6417897691340387,-0.46642160666913296,undefined,1491901575654
903d185fccf839df,-0.722194909414539,-0.6702615179262884,0.36070916531074915,0.3733112787994589,-1.2802619095271555,-1.9239689726322151,1.8857226848230424,-1.1791784682981843,-0.23388406551046012,-0.5324678919082962,0.06531465905777836,-0.15611980977522913,-0.1994485294117647,-0.7511900873696433,-1.0433904807558172,-0.118052212258572,-0.9465897984085692,-0.7881689263270423,-1.0675055501623498,-0.13100960540005552,-0.8271447997360214,-0.44693463846487963,-0.6417897691340387,-0.46642160666913296,undefined,1491901575691
903d185fccf839df,-0.7291249759056178,-0.6544120983630148,0.36070916531074915,0.3733112787994589,-1.2851064724741807,-1.928888325831338,1.891142715522987,-1.1482277329428854,-0.236193790403067,-0.5412779676337476,0.05427675293118104,-0.16774010188607597,-0.1994485294117647,-0.7511900873696433,-1.0423378432927866,-0.10794918539853314,-0.9465897984085692,-0.7878142815254017,-1.0658123219668965,-0.13673782705222468,-0.8273922919670923,-0.4470402098802315,-0.6415626696023669,-0.46773372698037885,undefined,1491901575783
903d185fccf839df,-0.769319430564694,-0.6544120837490186,0.39069580052101377,0.393880464566374,-1.344835515058537,-1.9513142414829643,1.9088676055332656,-1.0727756735875182,-0.29587222184517353,-0.5755014563952361,0.047806855224369234,-0.09610804530337203,-0.22555982620320855,-0.7558192640268427,-1.0444431182188478,-0.11401102129986153,-0.9567266314939046,-0.7973073641421056,-1.070017405187555,-0.1306400424131737,-0.8311623311297156,-0.44444130247801694,-0.6522859844583769,-0.4699093355479255,undefined,1491901576850
903d185fccf839df,-0.769319430564694,-0.6591082183479859,0.33710238407880955,0.3733112787994589,-1.3457715138591342,-1.9498654546486842,1.894853368733952,-1.165761419436228,-0.2958406451002948,-0.5761047495003766,0.04992942560217881,-0.09503544343814302,-0.1298184046345811,-0.7530417632128329,-1.043390488118051,-0.11805218399385047,-0.9590601933680085,-0.7942358863755205,-1.0702902808851502,-0.13265723864547654,-0.8299367916994695,-0.44479107938822066,-0.6545352437314234,-0.4690716976720705,undefined,1491901577259
903d185fccf839df,-0.7679333827610685,-0.6890460270941652,0.3517767598124155,0.3216669380578753,-1.3346732464725528,-1.960698746370995,1.9149319365105204,-1.041822704337148,-0.29402745579206413,-0.63027519603452,0.03627890560752293,-0.22556099099110782,-0.45185773172905525,-0.7623001100518445,-1.0454957593629954,-0.1443200736152566,-0.9673134481774283,-0.8059771638592818,-1.0744813705574605,-0.13401230222169436,-0.8379373319029412,-0.44305373809406634,-0.6513232510025413,-0.46804628149224736,undefined,1491901578459
903d185fccf839df,-0.755459228571717,-0.708417522032171,0.3517767598124155,0.3216669380578753,-1.343786374052637,-1.9641273868766,1.9122837197087805,-1.0639741827005456,-0.29321045148744757,-0.6201041937028542,0.03981880893421003,-0.24749397221623679,-0.6650999888591801,-0.7623001165272318,-1.053916825937188,-0.1564437736826349,-0.9628444085833565,-0.8093906206398127,-1.0776369322077883,-0.14108018877577616,-0.841838481407144,-0.4404298969292057,-0.6489773446031978,-0.47183385174464754,undefined,1491901578893
903d185fccf839df,-0.733283015800265,-0.6790667575121054,0.45768680866292083,0.4741471848939901,-1.2735042048544338,-1.9579246232521506,1.9230317364161587,-0.975900813975224,-0.30003814013835894,-0.6475244063212043,0.026750667025087736,-0.22202497910072178,0.10518326648841357,-0.7567451084238248,-1.05181154733001,-0.17260859404691986,-0.9773735665647434,-0.81681916377825,-1.080092812929492,-0.14700859062261648,-0.8467318083215135,-0.4418241587000151,-0.6515150386997486,-0.47174182838872825,undefined,1491901579847
903d185fccf839df,-0.7166508217162663,-0.6778927275158626,0.41813039248516864,0.3863605806942422,-1.291247031753664,-1.9598881718009076,1.8889757490887684,-1.2068532470817632,-0.2965304559588405,-0.6219158530074975,0.03711439128833204,-0.1888415239030045,0.6622242647058824,-0.759522615713222,-1.0528641811119237,-0.17260859404691986,-0.9727328460000152,-0.8220881730507202,-1.0796170297654097,-0.15073501439369308,-0.8499141606302953,-0.4409762255163615,-0.6492456620236623,-0.47109521103232677,undefined,1491901580332
903d185fccf839df,-0.7901096645433401,-0.6591082183479859,0.281595824681346,0.2715205266394739,-1.2842321848730376,-1.954174547909349,1.9142692197525504,-1.041248323512806,-0.3130124388501007,-0.6150435256329329,0.024067748982301344,-0.19101382366566502,0.7840769830659537,-0.7882234682503025,-1.0886537039291717,-0.22312378487655724,-0.9714108700994145,-0.8429868873189937,-1.0920503624669338,-0.16440883443463872,-0.868132655632937,-0.44201570993023,-0.6384979799798107,-0.46626144710161704,undefined,1491901581321
903d185fccf839df,-0.8053558108237133,-0.6397366941819878,0.2841478679274557,0.28581594898032603,-1.2869064664151209,-1.9597460880169881,1.8981353603140172,-1.1524919716292634,-0.30425698654643396,-0.5835774758456361,0.030883552611671666,-0.21491081166732937,0.7405581550802139,-0.8104434747623813,-1.1044431775278254,-0.22110322472810393,-0.9820689362415984,-0.8513780379628347,-1.099655896006106,-0.18259439943560252,-0.8774968554309673,-0.44862908137891916,-0.6408755883402156,-0.4706425033937179,undefined,1491901581739
903d185fccf839df,-0.7887235822343048,-0.6955031774595043,0.2841478679274557,0.28581594898032603,-1.3059041484230622,-1.968653098800575,1.9099773794523585,-1.0868013406369803,-0.2977649907144108,-0.6531304061390205,0.04082227380652701,-0.33373113000863225,-0.39528325534759357,-0.8169243207873831,-1.0949694882150696,-0.20695896451227228,-0.9837863619761612,-0.8551144746882026,-1.110892774304635,-0.1968533596496175,-0.883838412008935,-0.45689235770723857,-0.6452469089942047,-0.47313950243412967,undefined,1491901582863
903d185fccf839df,-0.8192159438058708,-0.7025473720509571,0.273301302926065,0.26699604675269434,-1.3367715248894163,-1.965343249915942,1.9148582988709728,-1.05671917447522,-0.2832010653775234,-0.6609055169030018,0.04312746814024238,-0.27907517966443446,-0.3778757241532977,-0.8169243207873831,-1.0981273858796936,-0.19281467603171912,-0.977177920952009,-0.8570143578467868,-1.110857790293071,-0.18893855895947254,-0.8833424743153536,-0.45572043006217905,-0.644369973742322,-0.4701519075845044,undefined,1491901583252
903d185fccf839df,-0.7762494970557727,-0.7189837773843598,0.281595824681346,0.2603443630889279,-1.3573737752272523,-1.9788155692874667,1.9345213556052412,-0.9391314046083055,-0.2877031692362965,-0.6670547046718115,0.04050593551552393,-0.1693070838368684,0.07036820409982177,-0.8178501522335906,-1.0928642316945927,-0.18675285426275148,-0.9841857362287344,-0.8677550302959604,-1.118792173925096,-0.2046141769353599,-0.8927694137472658,-0.45946051924635334,-0.6494602717448157,-0.4625461373128941,undefined,1491901584359
903d185fccf839df,-0.7914956088307363,-0.7031343578210861,0.2841478679274557,0.28581594898032603,-1.3749931746602548,-1.98265881405039,1.92817826546084,-0.9851606399896955,-0.28609370143816953,-0.6935811370621485,0.04063801877911823,-0.1806649177951783,0.09212761809269164,-0.828034336994197,-1.0960221146347493,-0.174629224857177,-0.9967524760070167,-0.8744806161823706,-1.120996169222791,-0.20218122247407275,-0.8957147384658415,-0.4630382470496669,-0.6511870734169868,-0.46231245082992317,undefined,1491901584763
903d185fccf839df,-0.7693193960592842,-0.745986496525936,0.41813039248516864,0.42936435582236027,-1.3718251793402418,-2.0005147615710306,1.9344082745800655,-0.9560328462461531,-0.2797054677213102,-0.713524077048665,0.04160989594932152,-0.2342633599147376,0.12694268048128343,-0.8622901717331354,-1.125495831079398,-0.21302077214887913,-1.023317664533651,-0.8929474797850822,-1.128937549396542,-0.19066318548218525,-0.9041140097998686,-0.4658788506746383,-0.6521356815489182,-0.47002205364334687,undefined,1491901585840
903d185fccf839df,-0.7790214891467946,-0.745986496525936,0.41813039248516864,0.42936435582236027,-1.3661886179793215,-2.0010248645796525,1.9348500815619576,-0.9546971226530425,-0.27498365213743475,-0.6932450249071385,0.03899012313658491,-0.2696088086870866,0.2574991644385027,-0.8622901782085227,-1.1339169160591753,-0.21302077214887913,-1.0115351253896543,-0.8940367458539804,-1.1299240996812168,-0.1953443126420723,-0.9055601343229565,-0.4644525523436037,-0.6508501862295264,-0.4712016889994716,undefined,1491901586262
903d185fccf839df,-0.8095138162129508,-0.7137006716292597,0.43471841944793277,0.42936435582236027,-1.348466361803994,-1.99472427227291,1.930721284886425,-0.9667609907704422,-0.2956895163046936,-0.6384919808395886,0.03413963670733416,-0.24197232065147542,-0.051484514260249546,-0.8484026547123117,-1.12865374346849,-0.13825833664045356,-0.9614011123991203,-0.8894326957174664,-1.1248234246683433,-0.05395578878901277,-0.8724052373081772,-0.45564773292941035,-0.6353437293594959,-0.43034123684040565,undefined,1491901587336
903d185fccf839df,-0.7942676699325776,-0.732485151569144,0.40473178423766815,0.3749977534538403,-1.3189978403109177,-1.99430733845246,1.921551152352278,-1.0194510525355331,-0.2822717728765523,-0.6685005975426299,0.03438374299333888,-0.20334310872300132,0.07907196969696971,-0.8484026547123117,-1.112864251464252,-0.12613466483779678,-0.9573522738341158,-0.8904902973392742,-1.119505848444888,0.000570106011257561,-0.8593463696311955,-0.45735707587730645,-0.6444787113021337,-0.41860305531142267,undefined,1491901587754
903d185fccf839df,-0.7859515901432831,-0.7524436615052712,0.37729770054741213,0.3529253770564746,-1.30018530050958,-1.9897396997033958,1.9308001831804213,-0.9494363348568378,-0.268659415627908,-0.636096874396166,0.04528101145332064,-0.1862619309725361,-0.04713263146167557,-0.8197018280767802,-1.108653716336597,-0.10794919953089391,-0.9113217532294293,-0.874917588642784,-1.1056381693178992,0.033584372294206556,-0.8435369961816184,-0.4481892990543747,-0.6310773952404022,-0.3878034810198666,undefined,1491901588833
903d185fccf839df,-0.7762494625503631,-0.7559657514939995,0.33965442732491935,0.3194241555501605,-1.276127055582718,-1.9877435416633384,1.9163020635913186,-1.042349135109286,-0.26810752018000233,-0.667904454302504,0.05345252444026197,-0.21954058997357379,-0.3038937165775401,-0.8261826611510074,-1.108653716336597,-0.10794919953089391,-0.9026606126322816,-0.8797749564211971,-1.1055821948247688,0.02836429994756857,-0.8471188254084511,-0.4466321802148448,-0.6257937939156134,-0.38652587680899636,undefined,1491901589369
903d185fccf839df,-0.7859515901432831,-0.77533730488799,0.33965442732491935,0.3185765465448743,-1.2845407564223579,-1.9998183172305204,1.9132672662041845,-1.0723626797501864,-0.2835910557284849,-0.6206523233739939,0.06069658181076259,-0.20944298532123104,-0.3604681929590018,-0.8243309853078178,-1.1097063464373937,-0.04328974848542489,-0.8953727315771524,-0.8815228484110772,-1.1048125454081201,0.061717333403491594,-0.8401052746045949,-0.4465405782899081,-0.6197942756708689,-0.3871324866365911,undefined,1491901590470
903d185fccf839df,-0.7762494625503631,-0.7536176915015139,0.32306640036215517,0.3173302579846535,-1.264689361366173,-1.994258423463486,1.92283975919203,-1.0009890470101477,-0.2807585581065778,-0.645333410068103,0.05607243742048564,-0.1922659206512643,-0.39528325534759357,-0.8409959837164896,-1.1097063464373937,-0.06147518552760623,-0.8946664544486187,-0.8892300407169734,-1.1041758355143523,0.04316220641185713,-0.8473205729584333,-0.44518061805236786,-0.6182723756168312,-0.38603830883196977,undefined,1491901590744
903d185fccf839df,-0.597453609058892,-0.7436384657614427,0.3409307030849236,0.3135278968693102,-1.2795933368690426,-2.0043859556280363,1.9469866407832714,-0.8464768403821226,-0.2720199908199254,-0.5966400115916211,0.05857958690812686,-0.14641879097032373,-0.26037488859180036,-0.8372926385054977,-1.1044431775278254,-0.08168128164476626,-0.8767264576930477,-0.8891413795220998,-1.0993550329610142,0.041052618941459645,-0.8478145329239313,-0.4450866680111748,-0.6135312215725076,-0.3867577674092864,undefined,1491901591850
903d185fccf839df,-0.5905235425678133,-0.7436384657614427,0.32242851661910243,0.3126037525595081,-1.2696676393729585,-2.0037314394535737,1.9280572955490343,-0.9701485965806474,-0.2783270194892117,-0.6105366983669328,0.05786841614487019,-0.1431089620049189,-0.3343568961675579,-0.844699315976707,-1.1065484414105358,-0.06551640475103823,-0.8681550292034482,-0.8923711807975698,-1.0994389947160028,0.04594932424335851,-0.8479639006761929,-0.44453700856155803,-0.6131066419776483,-0.38696066142881386,undefined,1491901592299
903d185fccf839df,-0.590523577073223,-0.738355316164354,0.4021797409915584,0.37447377218421524,-1.2246471447739302,-2.0053782117985053,1.9410906088475157,-0.8750630980361848,-0.2893752162399966,-0.5553745731325551,0.04745538345990157,-0.18606633076068313,-0.4605614973262032,-0.8456251603736891,-1.0991800233427242,-0.07157822652000585,-0.8635822356553728,-0.8991917613872707,-1.0972070121380986,0.037064421072765766,-0.8526620671656715,-0.4456160920886432,-0.6086380626161569,-0.3871771490080585,undefined,1491901593343
903d185fccf839df,-0.6334900238233211,-0.7360072561718685,0.40154185724850566,0.3576427518711654,-1.2016174690947965,-2.003419321665666,1.9386501480906873,-0.8860532571235057,-0.2813680721185274,-0.5778187966721299,0.040214096285869305,-0.2142595292593151,-0.6172292780748664,-0.8465509918198966,-1.1012852835443179,-0.06551640475103823,-0.8704882928539325,-0.9066203045478549,-1.0965633054640394,0.03149018379428549,-0.856832694918381,-0.44441873827220957,-0.6126832653632094,-0.38745387453493096,undefined,1491901593743
903d185fccf839df,-0.6071556676409926,-0.7113526116367741,0.35241515182936706,0.3173302579846535,-1.1707192348791557,-1.9887940286833294,1.9363569563278225,-0.8875070623713288,-0.28699315514586815,-0.5524068421406332,0.053614193543977236,-0.2636572244390276,-0.1994485294117647,-0.8419218345888589,-1.1054958186719728,-0.17462923898953778,-0.9185128086906086,-0.903320841118937,-1.1004535322319502,-0.0813188263066772,-0.8833890160861445,-0.44207277456465255,-0.589528984683532,-0.39692380901667473,undefined,1491901594856
903d185fccf839df,-0.5863654681677563,-0.7072435066499243,0.30137377863327264,0.30668312128340774,-1.1550541186716676,-1.9840819779934074,1.9073396734842996,-1.074741760858885,-0.28863911510537443,-0.5394577835663951,0.05120969454310239,-0.1757994922736304,0.2400916332442068,-0.8437734651043377,-1.1086537089743633,-0.20695897864463306,-0.9382881177071593,-0.9080325509048635,-1.10425979710418,-0.1434823497252102,-0.8996268287739649,-0.44535639301810537,-0.6118312477396362,-0.42069466421850715,undefined,1491901595263
903d185fccf839df,-0.6126997553392654,-0.674957594069271,0.24969502996802428,0.2509694514412902,-1.0967033596545088,-1.9665497945251706,1.9089175576575306,-1.0421388548014845,-0.29631306384897954,-0.5197340833589842,0.0472539286334693,-0.19465945921151734,0.3575924688057041,-0.8428476271827429,-1.1181274093304698,-0.22918563491024638,-0.9550335587426189,-0.9105657284256501,-1.1084858707758203,-0.18073118862704893,-0.9105866453287155,-0.4484671465560731,-0.6065338504325244,-0.4118752313920001,undefined,1491901596318
903d185fccf839df,-0.5073626066532292,-0.674957594069271,0.2401247407266379,0.2947033327660616,-1.066895409432974,-1.965979130891879,1.9278521604036518,-0.9103134128380442,-0.28651407298024173,-0.5214070452280042,0.05290172555367297,-0.20279121135360745,0.4359263591800357,-0.8354409885638572,-1.1202326805754141,-0.20291774528884027,-0.9509265510346703,-0.9048217485102557,-1.1061349422845541,-0.1934503047810784,-0.909950850217418,-0.4497420590751226,-0.6048308895443405,-0.4143885973367197,undefined,1491901596757
903d185fccf839df,-0.5073626411586389,-0.7095915374144176,0.22226043800386944,0.24700817095029287,-1.0169994928412955,-1.976060078136164,1.9077157379984053,-1.0464464497410777,-0.2722394613366757,-0.5455974292155323,0.048861919663853656,-0.12938332677339703,-0.5345435049019608,-0.8437734651043377,-1.1170747718674392,-0.19685592351987266,-0.9412708832352567,-0.9027698746314372,-1.0998588029281748,-0.2026431766586623,-0.9093220548507167,-0.4497305888217636,-0.5971107275780931,-0.4170358716369991,undefined,1491901597860
903d185fccf839df,-0.5267668273336594,-0.670261488698296,0.18461767305527546,0.2080707043327881,-1.0652599822495046,-1.9663494800892487,1.9117472303745007,-1.0258860595367993,-0.24078791490850124,-0.5544868424293015,0.055933317537431665,-0.13858365716071847,-0.678155637254902,-0.8289601490142428,-1.1149695079847286,-0.20291771702411873,-0.9398675664932091,-0.8974818667217183,-1.09917311540109,-0.2014882930482561,-0.9066472091448516,-0.4495945415279915,-0.5969633113578133,-0.416121811856502,undefined,1491901598266
903d185fccf839df,-0.5309248672283068,-0.6620432787245967,0.17759942705999884,0.18663715600741249,-1.0494097204745372,-1.963659209212578,1.9222454131340279,-0.9575288147152656,-0.24646563925742662,-0.536099996695508,0.051469905799612345,-0.010143487076362596,-0.7651932932263815,-0.8132209691010038,-1.1170747718674392,-0.19483530684197625,-0.940597615608571,-0.8966015870079677,-1.0958706206000104,-0.19297295202988182,-0.9042836674882975,-0.4481615815387734,-0.593592833920241,-0.4181339332991213,undefined,1491901599332
903d185fccf839df,-0.551715066701543,-0.6503029787621689,0.15845986512502377,0.1873695696618311,-1.0602508452050967,-1.9606754539507287,1.887290030927027,-1.190146177611729,-0.25617064461655464,-0.4853059863953195,0.049292092730085245,0.055136135537275074,-0.7347301136363636,-0.818775957778249,-1.1149695116658456,-0.19079408761854424,-0.9371867734104494,-0.8978998403566362,-1.0936246443147142,-0.19614503173796763,-0.9047208014804039,-0.4473628139363416,-0.5923688336118932,-0.4176839825083464,undefined,1491901599737
903d185fccf839df,-0.5198367263371709,-0.6303444103700571,0.2133285407794346,0.3073611941743879,-1.074475964075264,-1.9485890313126637,1.9232973345194864,-0.937476344501634,-0.26385206488337876,-0.49575405384487065,0.022543359003064898,-0.043789325527750556,-0.7347301136363636,-0.8104434812377685,-1.0939168654765064,-0.19281469016407987,-0.9373436425925553,-0.8867791914418459,-1.0845847647538032,-0.1920028492936504,-0.895276673564552,-0.44515983092480127,-0.5993838414692646,-0.4231436505450297,undefined,1491901600852
903d185fccf839df,-0.5669613164981455,-0.6573471295116332,0.20567241104110529,0.252420201920552,-1.1014039184698567,-1.9380445652696763,1.9185847225225459,-0.9668412893167531,-0.25233659841968564,-0.4824420283297688,0.0222338939225998,0.021606859688155917,-0.7956564728163993,-0.8058143045805691,-1.0939168654765064,-0.1887734568082871,-0.9292667138519147,-0.8860509027749925,-1.0849695893887228,-0.1961758281038303,-0.8957286899504745,-0.445550278596948,-0.5981176404678653,-0.4225177512149675,undefined,1491901601259
903d185fccf839df,-0.5974536435643018,-0.6303444395980494,0.17951409483695474,0.1818330172103993,-1.0987604947330751,-1.928986153975436,1.8781435671478137,-1.2260379854480148,-0.2536332064338065,-0.481821108889475,0.03858416832206932,0.09462954720900309,-0.7521376448306596,-0.8345151376914879,-1.0802326263116282,-0.20089710034622235,-0.9219460489885275,-0.8948030312250549,-1.075670827635746,-0.18673658074908586,-0.8950311318781456,-0.44400510443460145,-0.5971945692244126,-0.4260903364779286,undefined,1491901602331
903d185fccf839df,-0.5974536435643018,-0.6338665295867777,0.16866803810946288,0.17852536786932963,-1.0819639517353252,-1.9291259082288414,1.8906588170203709,-1.1378725665736338,-0.2509315794825486,-0.5079186149880381,0.035613676151816584,0.04556680431047285,-0.9392686051693405,-0.8122951441301837,-1.071811567099669,-0.21100015547098275,-0.9174158240439748,-0.8833594019058844,-1.072382326468654,-0.18305635236819706,-0.8880132166636097,-0.44638379070731404,-0.5977802193497003,-0.42731971134206725,undefined,1491901602781
903d185fccf839df,-0.6307179972268896,-0.6714355479225312,0.11379885418115318,0.16306867796180313,-1.047959437874291,-1.8964047559029489,1.8784381082783075,-1.1798306938326952,-0.2141975645582558,-0.58293607192963,0.05063541734001256,-0.09650632784148849,-0.9349167223707665,-0.8169243143119957,-1.0844431577581661,-0.21100015547098275,-0.9058021457715405,-0.8747086009090069,-1.070947980214467,-0.1655945161475453,-0.8806931325925886,-0.4466314274694914,-0.5923959078023373,-0.427509110522257,undefined,1491901603859
903d185fccf839df,-0.5960675267498569,-0.6544120545210262,0.13485308389308415,0.17852536786932963,-1.0498108633332133,-1.889787387414126,1.8773204402349752,-1.1777785398675564,-0.2041749613272162,-0.5542228038848936,0.05144384933260088,-0.050970366637116134,-0.7564895276292335,-0.8058143110559564,-1.0676010466964818,-0.20695892211518999,-0.8961121567289505,-0.8707758429794697,-1.0674635683611795,-0.17498756773515692,-0.8792734559058986,-0.4473572523308342,-0.5926597735369294,-0.4295706152039377,undefined,1491901604275
903d185fccf839df,-0.5835934415713248,-0.6356275745811419,0.17632416784779223,0.26992602567184915,-0.9687801435165361,-1.8903068073995524,1.8831323100797204,-1.1160689508569757,-0.1888558189320391,-0.6257154899657877,0.055765690109440436,-0.015333088623450127,-0.7347301136363636,-0.7863717794563384,-1.0549694339512836,-0.1948352927096155,-0.8653409113171238,-0.858660921558519,-1.0604177800408139,-0.14315898265354673,-0.8651570284202582,-0.44613287079883773,-0.5855959006963731,-0.42537626676488494,undefined,1491901605423
903d185fccf839df,-0.5018185189549564,-0.6285833946036853,0.14506125687752328,0.1882793797270173,-0.9434876150250789,-1.8808035114559263,1.8683527978536811,-1.2012909834797716,-0.18677764976451142,-0.5911626894961675,0.08016833931794183,-0.0167158772144405,-0.7826008244206774,-0.7863717794563384,-1.0497062724039488,-0.15240254032684214,-0.8451962625799043,-0.8584519343894818,-1.0575910686056798,-0.11690463315416601,-0.8581694662267841,-0.44766689184108194,-0.5930645435580407,-0.4217409396162915,undefined,1491901605907
903d185fccf839df,-0.5018185534603662,-0.6262353346111997,0.20758657054416232,0.3182838144799118,-0.8901357051567171,-1.8745774552390606,1.891955310651709,-1.0192063704281864,-0.17450078881391476,-0.6208115563103807,0.0687269142442013,-0.024744090235666316,-0.7390819964349377,-0.7900751246673303,-1.0476010122023551,-0.14229948520208172,-0.8410499134732837,-0.8492058364986828,-1.0554990221107339,-0.10789654200267139,-0.8525573481856833,-0.45034405987964565,-0.5788782336282686,-0.42436363636843993,undefined,1491901606891
903d185fccf839df,-0.4838003460781517,-0.6332795145886564,0.18653234083223136,0.2708352730828765,-0.9060991065443119,-1.8813275902486857,1.8761633235684059,-1.1289718215575457,-0.1632261506888443,-0.6771260387517793,0.06510535021287622,-0.04706210453169131,-0.7521376448306596,-0.7900751376181049,-1.0423378432927866,-0.2534329219861169,-0.8569970821838028,-0.8367806006049998,-1.0514898495579197,-0.15216707167799653,-0.8565763765783738,-0.445440434794179,-0.5704403847788885,-0.43076722817776264,undefined,1491901607252
903d185fccf839df,-0.4519220747245991,-0.5851442262867179,0.3198764733729927,0.4262079086902534,-0.875488871069546,-1.8646595544872366,1.8876319074723442,-1.0207150542654462,-0.1551046744579909,-0.7071638700027352,0.07816544045508501,0.07907371185716772,-0.7521376448306596,-0.7808168037298677,-1.0518115362866594,-0.32415418066819274,-0.8975097131048542,-0.8231457735375115,-1.0592982908143787,-0.24699069817081193,-0.8747130853284483,-0.44511266743045796,-0.5627971701993852,-0.4764874509325768,undefined,1491901608328
903d185fccf839df,-0.44776403482995186,-0.5874922862792035,0.3205143571160454,0.455990972966806,-0.8564397615226587,-1.8590041618311786,1.8855727708365488,-1.0276342731141277,-0.15282984333420616,-0.6808389314631562,0.08777142625101018,0.0609984528754469,-0.5127840909090909,-0.7854459544855181,-1.048653638622035,-0.33223663324741753,-0.8971935310806199,-0.827667495245656,-1.0592842972170935,-0.24990100340433619,-0.8781206313935839,-0.4448589969930673,-0.558031563904315,-0.47772760620560567,undefined,1491901608752
903d185fccf839df,-0.4131135643529191,-0.545814221412585,0.4493925410445893,0.4666484146820503,-0.8413300744476365,-1.8541453683071822,1.8740042554485132,-1.0838444577812294,-0.14861698016411934,-0.7153241723127729,0.10821959699589478,0.11055701692941092,-0.36482007575757575,-0.7965559836431066,-1.0549694413135173,-0.3585045087364629,-0.9084626831333508,-0.8155779058873214,-1.060613691259194,-0.3223660869206712,-0.8877552729404701,-0.4493018466997757,-0.5752070428383755,-0.49544890094995475,undefined,1491901609842
903d185fccf839df,-0.34104083834029025,-0.5405310572015001,0.476188995128742,0.5103359519219676,-0.8501449164315057,-1.8623559365678004,1.8654363494788244,-1.14750668337539,-0.15677577336696488,-0.7229368831555589,0.09972671643431619,0.10243869023219306,-0.3735238413547237,-0.8011851408741443,-1.0518115362866594,-0.3847724831520336,-0.9119232860477166,-0.814805286703313,-1.0610404967226712,-0.33676363356103445,-0.8897446107438988,-0.45149546851098715,-0.573420166217561,-0.49538514141963724,undefined,1491901610431
903d185fccf839df,-0.34104083834029025,-0.5393570272052574,0.5291440195539947,0.5672852815681535,-0.8425952148172727,-1.8664553975984794,1.8887495838958512,-0.9923487754312934,-0.14245656403301313,-0.7504218358517215,0.07999160652354631,0.07115755957513918,-0.38657948975044565,-0.8039626416881541,-1.0497062760850657,-0.38073123566388006,-0.915409286008384,-0.8067561154443744,-1.0578079701221146,-0.33690221943542803,-0.8856213970524448,-0.44627179766985275,-0.5755396475746085,-0.4956959499686633,undefined,1491901613148
903d185fccf839df,-0.34104083834029025,-0.5393570272052574,0.5291440195539947,0.5672852815681535,-0.8425952148172727,-1.8664553975984794,1.8887495838958512,-0.9923487754312934,-0.14245656403301313,-0.7504218358517215,0.07999160652354631,0.06693463492358857,-0.29518995098039214,-0.8039626416881541,-1.0497062760850657,-0.38073123566388006,-0.915409286008384,-0.8067561154443744,-1.0578079701221146,-0.33690221943542803,-0.8856213970524448,-0.44627179766985275,-0.5755396475746085,-0.4956959499686633,undefined,1491901613183
903d185fccf839df,-0.37430519200287804,-0.543466132192107,0.5482843438998181,0.6274944753125192,-0.8340992288754486,-1.8645384337742803,1.8858383877952685,-1.009561344056191,-0.14920611522445804,-0.7610119985387183,0.0778011116022888,0.08161642163439982,-0.2864861853832442,-0.808591805394579,-1.0507589098669794,-0.38073123566388006,-0.9199096743295718,-0.8061798175531217,-1.0569193751224253,-0.33462324945552835,-0.8847634172945528,-0.4468163933865653,-0.5762177704815764,-0.4959165912583451,undefined,1491901613293
903d185fccf839df,-0.352128979231426,-0.4876996781425829,0.5482843438998181,0.5672852815681535,-0.8248215316151326,-1.8424735511441699,1.8870928035236667,-0.9676721968011078,-0.17575452354379878,-0.7861861807804683,0.09632144518517814,0.07064209940436365,-0.2734305369875223,-0.8048884731343616,-1.0539168075316037,-0.35850452286882367,-0.9201961049233754,-0.8011451271247385,-1.0575141039001335,-0.3257383462714733,-0.8803773957642412,-0.44875771447853635,-0.5662069700347082,-0.496638891508295,undefined,1491901614313
903d185fccf839df,-0.32579469205991696,-0.5264426972465869,0.6012396224620201,0.6748945404054346,-0.816922116689693,-1.8493378190254217,1.8958973918050843,-0.9136066429650493,-0.17307143849792805,-0.804050298783333,0.07185509365799134,0.03944935987543945,-0.2342635918003565,-0.8002592964771622,-1.0539168112127206,-0.3140511396757931,-0.9281893129190831,-0.7892391931773416,-1.0530921193710199,-0.3112330105533729,-0.8720171971778169,-0.4442957638152845,-0.5636126664694927,-0.4920001496022825,undefined,1491901614749
903d185fccf839df,-0.3729192822208915,-0.48711266314446156,0.6663167252378195,0.7354881293049628,-0.8574683332990453,-1.841241383890125,1.8977040620707608,-0.9049007819462226,-0.21319889341726886,-0.7690474171280685,0.07049471592249336,0.05977750885991765,-0.3343568961675579,-0.7993334585555674,-1.0539168075316037,-0.3504220702895989,-0.9333375064614191,-0.7775739103588457,-1.0538897557864928,-0.30685985168314506,-0.8652966348016551,-0.43284439758922616,-0.561543106201875,-0.4955856455660762,undefined,1491901615860
903d185fccf839df,-0.354901074838677,-0.4700892281989413,0.6567464359964331,0.5817267647900997,-0.8698111682408157,-1.8383764198832027,1.9262953104680423,-0.7151845491302566,-0.2222728767726153,-0.7574073653408596,0.06761099325220407,0.07555969726822018,-0.36482007575757575,-0.79563012629535,-1.0549694413135173,-0.32011297557712154,-0.9270913288792488,-0.7677198499802137,-1.0519096584123833,-0.29006014782240735,-0.8575057525738428,-0.43671336770656993,-0.5565471715326734,-0.4990209195356251,undefined,1491901616241
903d185fccf839df,-0.35074300043862,-0.49767896233863884,0.6726968333530939,0.5939715130676863,-0.9290876390671958,-1.834891877879191,1.9326699634916165,-0.6857710027871209,-0.23441992366872694,-0.7239785145518887,0.08639385749507096,0.06867638039619327,-0.33000501336898397,-0.7808167843037059,-1.0528641774308067,-0.3585044946041021,-0.9316679227498411,-0.7697273934526103,-1.050405343994376,-0.28810454483339737,-0.8569362676480952,-0.436600969620338,-0.5620597039905089,-0.5000543215949351,undefined,1491901617332
903d185fccf839df,-0.3756912053010938,-0.5123543372916736,0.7620183469669363,0.7699626081113268,-0.955758450517692,-1.8352738731453497,1.91504237463821,-0.8104908608129108,-0.23140033511191713,-0.6489514915052375,0.09064553846854281,0.08915985264416325,-0.4083389037433155,-0.7845201230393106,-1.040232583091193,-0.3382984408840244,-0.9267220325785791,-0.7639770805713917,-1.0434155300692678,-0.2810520566574504,-0.8516060216942777,-0.43485837127942173,-0.5567867400918686,-0.49927131018360316,undefined,1491901617783
903d185fccf839df,-0.3770772531047193,-0.5082452323048238,0.792643120057203,0.8078573787741203,-0.9370384814195521,-1.8356092836144666,1.9107373827018954,-0.8331330534807851,-0.24021954741243967,-0.6895462941289929,0.09408428049622443,0.09269232414152781,-0.4126907865418895,-0.7789651214112909,-1.040232583091193,-0.3382984408840244,-0.9267220325785791,-0.7608042758056284,-1.0435484694698076,-0.28263809657880484,-0.8504109381663041,-0.4351239372615452,-0.5579913164285043,-0.4991163064191628,undefined,1491901619029
903d185fccf839df,-0.4089555589636816,-0.4589358555506579,0.7620183469669363,0.7699626081113268,-0.962937865702192,-1.8221206596640052,1.918884523259967,-0.7615924929441243,-0.2527152319031779,-0.6942103094805006,0.09238549053996224,0.07865074357413361,-0.4126907865418895,-0.7724842753862892,-1.0423378469739035,-0.3382984408840244,-0.941731183345185,-0.758923391616493,-1.0446329752719168,-0.2833618234205442,-0.8497458125872948,-0.4349747104411532,-0.5623641136777591,-0.498000631651291,undefined,1491901619207
903d185fccf839df,-0.5212227741407964,-0.42547597142974647,1.021688874327081,1.0447063907899306,-1.1862609221700382,-1.8236020562976438,1.9028690013109706,-0.9043158996498493,-0.32429756564716017,-0.47465319282364005,0.030574758370017528,0.08117320225539094,-0.5867660984848485,-0.6928625832262111,-1.047601015883472,-0.4292258239479818,-0.8755889311393484,-0.6925794745380013,-1.0276447184878128,-0.21476174878232776,-0.8054321833772434,-0.4118652851436138,-0.5693559414278762,-0.49861253045156884,undefined,1491901620302
903d185fccf839df,-0.6085416809392084,-0.40082134150864823,1.054227806920405,1.1346537609205147,-1.2181362962379778,-1.809887495724907,1.9246201293280265,-0.748352044028033,-0.32143627713799455,-0.5316797172208597,0.04356655900474694,0.07067638933002648,-0.6172292780748664,-0.6836042299118121,-1.0318115275603508,-0.4655967828265091,-0.8706745297789668,-0.6884503955593216,-1.0270289991918358,-0.21356066952594965,-0.8053453235179867,-0.40798118872846406,-0.5736017667687394,-0.4928528387486117,undefined,1491901620708
903d185fccf839df,-0.6057696543427769,-0.3515119939824747,1.0299833960823621,0.9886506436327654,-1.1821157833087659,-1.775910882677306,1.913422420942213,-0.7747040554858643,-0.3185511000591594,-0.4841512545301903,0.0593980271207246,0.01589141969885231,-0.5258397393048129,-0.6965658831094921,-1.0676010319720144,-0.5039883018534898,-0.9360118220227245,-0.7000270168895009,-1.0369994542078529,-0.26100327851895355,-0.8257830175810987,-0.40059940545108463,-0.5386025885353967,-0.5039853277087923,undefined,1491901621937
903d185fccf839df,-0.5974535745534824,-0.369709575836207,1.0644359799048442,1.0888720518958699,-1.1919386246406753,-1.7776508240726894,1.9024087925137239,-0.8493421185864637,-0.3271287677817885,-0.5048362806443314,0.052201958165130916,0.024732988366147002,-0.4823209113190731,-0.694714220217077,-1.0676010319720144,-0.5201531504824962,-0.9284761954610897,-0.7025221967094666,-1.0364047251793456,-0.25455132972887395,-0.8261243197731828,-0.3996032782089421,-0.535790440932282,-0.5037995253778751,undefined,1491901622382
903d185fccf839df,-0.5932955001534254,-0.3761666531315653,0.9853223851384915,0.940833929898174,-1.2066780290149357,-1.7740311861369606,1.910650603901443,-0.7932193373060819,-0.32902002303548156,-0.5179170744174906,0.047971484950965836,-0.026348545459860578,-0.8391753008021391,-0.7132309268458747,-1.0665484018712175,-0.5464210825009846,-0.9362605723754593,-0.7080381906690849,-1.0329832846545333,-0.2632360527990319,-0.8302735445626152,-0.39607709610061803,-0.5447395877427891,-0.5006096970760562,undefined,1491901623435
903d185fccf839df,-0.6029976277463454,-0.34975097821610285,0.9853223851384915,0.940833929898174,-1.18769063230993,-1.7732043060619511,1.908431048730604,-0.7988933825870471,-0.34582303448115215,-0.534697975398148,0.047152531623635446,-0.017327802223491576,-0.843527183600713,-0.7280442558867443,-1.0644431343073901,-0.5666271362210623,-0.9362605723754593,-0.7091337898643705,-1.0367965466373759,-0.26231214591070706,-0.8319543142732511,-0.3942398712060703,-0.545447676276516,-0.4990243269324234,undefined,1491901623918
903d185fccf839df,-0.6029976277463454,-0.3726445923708293,0.8054030821508025,0.8588771781608027,-1.1829900694135194,-1.768941797321076,1.924654326724511,-0.6846091576877336,-0.3480110741701766,-0.5389154891608668,0.019646584920993544,-0.043345456469113836,-0.9001016599821747,-0.7382284212211889,-1.071811567099669,-0.5241943273088459,-0.9593141858297071,-0.7204570931816939,-1.045276681273099,-0.2807132883940294,-0.843066712344435,-0.3934141392361775,-0.5302738646631545,-0.49341177076118453,undefined,1491901624810
903d185fccf839df,-0.6168578297393223,-0.31511706409894863,0.9553357499282269,0.938436402653695,-1.194890622033326,-1.763356281730109,1.8823670451282126,-0.9520963543593376,-0.39039603218165664,-0.5050861073082008,0.04882432031545505,-0.04734563031322171,-0.9436204879679144,-0.7400800841136039,-1.0897063229866177,-0.5484416709141594,-1.0110317317583908,-0.7286329232864971,-1.0579269155216433,-0.296743070117076,-0.8523511209793835,-0.4022833654013915,-0.5385414437817556,-0.49911180745533623,undefined,1491901625214
903d185fccf839df,-0.5960675957606762,-0.3268574517453534,0.8781363146649313,0.8372152453795628,-1.2360539810491387,-1.7823535559306638,1.8299366058112623,-1.3421038068847797,-0.39502156487032075,-0.5602736812839225,0.07768809642183383,-0.06469974184058365,-0.9349167223707665,-0.6854558928042273,-1.0676010319720144,-0.49186471484499755,-0.9704238407120547,-0.7219706669033007,-1.0352992293972687,-0.27367619901354884,-0.8408463670878659,-0.3936771974047884,-0.5389968858880533,-0.4912998415323276,undefined,1491901626292
903d185fccf839df,-0.540626960315817,-0.3145300198728349,0.8800504741679883,0.8633034985553272,-1.173948941254585,-1.7841703622469653,1.9120654444500154,-0.7923118511316555,-0.34988477165995535,-0.6053429148862444,0.05942967099135517,-0.06709768536421777,-0.9479723707664884,-0.6845300613580196,-1.0697062995358417,-0.5140913287135286,-0.9655604898706557,-0.729608196718012,-1.0247410418149483,-0.2957421718227207,-0.8451039615277017,-0.4040799606398731,-0.5488819439312712,-0.49107315913076516,undefined,1491901626711
903d185fccf839df,-0.5184507820497747,-0.3268574517453534,0.82837172550274,0.7278049185992792,-1.1150119020054055,-1.7764326296603756,1.9228792015301366,-0.6950007737575438,-0.349153274350365,-0.6077268222359102,0.10578873568178493,-0.07739815190642031,-0.6868594028520499,-0.725266768023509,-1.1128642367397843,-0.4777204546291659,-0.9562902720089999,-0.7560609016279785,-1.050356366208132,-0.29196955307878725,-0.8676561823164831,-0.43052046165623614,-0.5443570214264418,-0.48038165197561183,undefined,1491901627795
903d185fccf839df,-0.548943109115931,-0.40845253648422625,0.84113143345939,0.868415644679461,-1.0923525110895707,-1.7854630907490445,1.8536206346602495,-1.1556217357363003,-0.32016074353046814,-0.6692373076442728,0.0814859137196322,-0.11430009396114568,-0.5606548016934046,-0.7261925929943293,-1.0991800233427242,-0.4635761096191697,-0.9066739590051908,-0.7458585302661764,-1.0458434233150167,-0.27898866465801503,-0.8582521013078744,-0.4269616798910294,-0.5453021951026091,-0.4764580154262784,undefined,1491901628214
903d185fccf839df,-0.5946815824624605,-0.3908420865405846,0.9738381905309975,1.0239050843633137,-1.0728816858735617,-1.787501174645168,1.8383703849954134,-1.2505611899550224,-0.3291384560692881,-0.6329561281645099,0.07626200506905083,-0.09130514495486469,-0.5911179812834225,-0.7447092866723525,-1.0802326447172126,-0.4938852184640078,-0.9439703334080669,-0.7657249746541317,-1.0422260720856575,-0.26751682280053146,-0.8630077489541115,-0.4362284557504713,-0.5631177764372831,-0.48613455439477204,undefined,1491901629324
903d185fccf839df,-0.5336969628355577,-0.3098338998878638,1.1461011096434077,1.2451513293161618,-1.0534417202193114,-1.7687531280886626,1.9049334059338678,-0.7816826177284854,-0.3701398806580285,-0.6266430044829064,0.09271051712653479,-0.08597679949231708,-0.5824142156862745,-0.7511901197465797,-1.0812852748180095,-0.45347311102385235,-0.94747841178723,-0.7723429006475163,-1.041988180479148,-0.2501473764448186,-0.8617705382885712,-0.43813884050433294,-0.5570735512886218,-0.4837971394509225,undefined,1491901629785
903d185fccf839df,-0.5946815824624605,-0.32979246827997566,0.9974444634890383,1.010484568295763,-1.0483914434195396,-1.735207424753922,1.8357852803342363,-1.1983357116376794,-0.31825725759672674,-0.5306800494105005,0.08148570343754005,-0.10266890491119961,-0.8739903631907309,-0.7317476010977362,-1.0918115905504453,-0.42518454819510676,-0.9456888923760222,-0.7686697935416323,-1.0398751434720501,-0.2780801569959503,-0.862567825465027,-0.4355749293569725,-0.561187549345762,-0.48824096251872007,undefined,1491901630865
903d185fccf839df,-0.6196298563357538,-0.32979246827997566,0.9974444634890383,1.010484568295763,-1.0301857596014345,-1.7317065781347316,1.843416977318389,-1.1408543179084165,-0.33182286080636136,-0.5744248490235513,0.07498093993870564,-0.09086599450622294,-0.8739903631907309,-0.7234150986557066,-1.092864220651242,-0.4453907291064314,-0.9443377210077413,-0.7658199688757327,-1.0408267098308002,-0.3062131163282102,-0.8669343064070201,-0.43636253665685,-0.5585441516356805,-0.48617329045887103,undefined,1491901631271
903d185fccf839df,-0.5600311119854278,-0.3315534840463475,1.0063766148504225,0.9796447728815225,-1.0277377644864822,-1.7536247195326689,1.8187020644641305,-1.3281716854591017,-0.3405947594031514,-0.6011958419338546,0.08913362226947621,-0.00040434998953827757,-0.9262129567736186,-0.7261925994697165,-1.079180007254182,-0.47569976728946567,-0.9499143434920101,-0.7665039267153776,-1.0391194881053492,-0.32227369447096854,-0.8693377374358605,-0.43075526251738117,-0.5921499620712032,-0.47581859304867,undefined,1491901632376
903d185fccf839df,-0.5946815824624605,-0.33096646904822613,0.9700098715248834,0.9511325991014472,-1.0346291819703781,-1.7473660538100058,1.8227993014030561,-1.2914252615166275,-0.3277971066799611,-0.5773220317260438,0.08041778106945377,0.020769178787843772,-0.9262129567736186,-0.7280442688375188,-1.0812852674557756,-0.4696379596528588,-0.9483030201228928,-0.7649016919594608,-1.0398681468875048,-0.316714855705246,-0.8678406097441327,-0.43054349664126257,-0.5931722873154218,-0.4767383840151543,undefined,1491901633066
903d185fccf839df,-0.4325179230549883,-0.2722649984640797,0.9438515553207328,0.9664609923509934,-0.9940932481993197,-1.7338727702258914,1.8617099090669027,-1.0061976485692667,-0.3393912668604774,-0.5946462573065212,0.08607636634992456,0.0005668746275646576,-0.9262129567736186,-0.7345251083871334,-1.076022109589558,-0.41306097531897534,-0.9341693587836618,-0.7520711481742614,-1.0365796460629684,-0.33494661605601095,-0.8635586218795862,-0.44239845323851257,-0.5806882718771702,-0.480966923540967,undefined,1491901633802
903d185fccf839df,-0.4325179230549883,-0.25758962351104503,0.9055709066290861,0.8797049488818228,-0.9979195266254028,-1.736446579784061,1.8233594490170524,-1.2604533188961302,-0.3370761622695108,-0.5872716060273092,0.11291974875673425,0.006598509711014298,-0.9001016599821747,-0.7317476010977362,-1.0633905189310608,-0.42720520727008543,-0.9186354818922625,-0.7438763191775227,-1.025944493738399,-0.3114331901153154,-0.8522268283456332,-0.43642096609433323,-0.5986081791921576,-0.47623684405827177,undefined,1491901634230
903d185fccf839df,-0.4228157264512489,-0.27754813344717216,1.119304655559255,1.108209603208433,-1.0590782830686194,-1.7243694754873158,1.9291407682909252,-0.5611203436831528,-0.297705319003063,-0.5589214689781813,0.10848575897186843,0.07286055464887711,-0.8957497771836007,-0.7345251083871334,-1.0623378814680302,-0.44539064431226677,-0.9304598513045981,-0.7524827906427717,-1.0373213075387655,-0.3242446966054649,-0.858189283467708,-0.4426954204315102,-0.6019405559298195,-0.49336345090362477,undefined,1491901635299
903d185fccf839df,-0.551715066701543,-0.3884939680921144,1.0108430717365386,0.9849638930751893,-1.1474427069762723,-1.6852335982471682,1.8579571821430845,-1.0030932864189175,-0.2558357879423052,-0.5840730510143052,0.11748058901731821,0.14154815372063556,-0.8043602384135473,-0.747486781010975,-1.1023379357318162,-0.4171021238806035,-0.9346370506033633,-0.7578847913615103,-1.0501044811817324,-0.29543420561971917,-0.8574054092983597,-0.44735297189876366,-0.6048438449784778,-0.49677716061407023,undefined,1491901635709
903d185fccf839df,-0.4061836013780696,-0.2587635365953184,1.0586940096695718,1.0469781467497585,-1.0417365980218032,-1.7204680022790817,1.9019722545664548,-0.7181132759799922,-0.21069580219095158,-0.69509839853798,0.12229436244950494,0.11420901788164092,-0.5432472704991087,-0.7345251083871334,-1.0602326139042029,-0.27768022319434815,-0.9318730756918373,-0.7172336259738447,-1.0373353011238162,-0.23574983186418874,-0.8185842267849992,-0.42877679984122014,-0.6020546249063038,-0.47779796885152803,undefined,1491901636801
903d185fccf839df,-0.4588521757210876,-0.2599375665915612,0.9342812660793465,0.9771366375630353,-0.9822749835884543,-1.7269153363666125,1.9477308819723749,-0.419843033676102,-0.22469991241205214,-0.6807140091770746,0.13935675613554818,0.13339332256334516,-0.3778757241532977,-0.6836042428625867,-1.056022078776548,-0.25949471549036296,-0.9282615272812387,-0.6942640399369538,-1.0291000544038802,-0.17163070533548483,-0.792960623064019,-0.43569859719634496,-0.605695426336895,-0.4827640403993081,undefined,1491901637214
903d185fccf839df,-0.3923233993850926,-0.2722649984640797,1.2513732747508601,1.3078316314743585,-1.1079250584343405,-1.7361298070005846,1.8941301774952977,-0.7915781775699456,-0.2435116721786082,-0.47002551817819593,0.11104672579131954,0.10043717473120603,-0.04713263146167557,-0.5975016917267323,-1.0423378580172542,-0.30596872949365067,-0.879177097319769,-0.6694388993429475,-1.0102366521947195,-0.24531226570551867,-0.7845402783738767,-0.4413576982419284,-0.6074729115298177,-0.4914260346839471,undefined,1491901638486
903d185fccf839df,-0.3923233993850926,-0.25465443160846873,1.2679613017136244,1.3079074391285652,-1.099233644070739,-1.7265216952926081,1.8747222090781985,-0.9042499489193596,-0.24600159121213344,-0.41440285667262666,0.11638085898707651,0.13081744405665552,-0.2734305369875223,-0.5956500158835427,-1.0423378580172542,-0.30596872949365067,-0.8843169616124027,-0.6707181539768541,-1.0112232025527994,-0.24485031242290395,-0.7853947489655082,-0.4400243457064373,-0.6064253100159878,-0.4905561337844896,undefined,1491901638922
903d185fccf839df,-0.42281576095665857,-0.23410890667422016,1.2545632017400228,1.3173824993075034,-1.0279846198110396,-1.7240294088520098,1.9297167114860516,-0.5223382216894832,-0.26317628745169713,-0.5351152315853095,0.08865461514473949,0.09768350981076822,-0.7347301136363636,-0.6030566804039774,-1.0465483857826752,-0.2999069501217653,-0.8777308514446283,-0.6607944309298642,-1.0111182503529468,-0.2410314981137726,-0.7802841201561567,-0.4435285326050887,-0.6093177373867479,-0.4909534566959238,undefined,1491901639882
903d185fccf839df,-0.4574661279174621,-0.23410890667422016,1.2545632017400228,1.3817367704316015,-1.0189743489892849,-1.7258322398770667,1.9316995864402062,-0.5105202485385292,-0.26122418019870525,-0.5208899795966799,0.08458909060645352,0.0858436947850452,-0.843527183600713,-0.6030566804039774,-1.0444431255810815,-0.30596872949365067,-0.8734895010832737,-0.6608387614636294,-1.0096699105320601,-0.23308589988654418,-0.7783177405015369,-0.4441022851828525,-0.6111965921211681,-0.4891426125589817,undefined,1491901642050
903d185fccf839df,-0.4574661279174621,-0.23410890667422016,1.2545632017400228,1.3817367704316015,-1.0189743489892849,-1.7258322398770667,1.9316995864402062,-0.5105202485385292,-0.26122418019870525,-0.5208899795966799,0.08458909060645352,0.0858436947850452,-0.843527183600713,-0.6030566804039774,-1.0444431255810815,-0.30596872949365067,-0.8734895010832737,-0.6608387614636294,-1.0096699105320601,-0.23308589988654418,-0.7783177405015369,-0.4441022851828525,-0.6111965921211681,-0.4891426125589817,undefined,1491901642114
903d185fccf839df,-0.47271230870324515,-0.2722649984640797,1.2877397639394499,1.3449767729389908,-1.0102520762682385,-1.7381702203669696,1.878222481154637,-0.8792781261081148,-0.2618883359267101,-0.5286213169138261,0.08932819482187805,0.023038467998013384,-0.7390819964349377,-0.6160183465524319,-1.036022055325772,-0.29990693598940454,-0.8777308514446283,-0.6669373856879012,-1.0107404227613523,-0.2146385627399983,-0.7768841962038089,-0.43189188963354247,-0.6158646869840674,-0.4944318019289496,undefined,1491901642843
903d185fccf839df,-0.4768703485978924,-0.2722649984640797,1.2788078667150151,1.3227972691831267,-1.0322428969806,-1.7307515937140507,1.900591611414367,-0.7310433131971853,-0.2581365550416367,-0.4863145732338488,0.08289554870669098,-0.03059226242550646,-0.7695451760249554,-0.6086116949827717,-1.0360220626880057,-0.2776801949296266,-0.8772364317267095,-0.6648411812365611,-1.0071510588427874,-0.19585245821854394,-0.7717425235751111,-0.4328381725822775,-0.6190372475346925,-0.4967096855053981,undefined,1491901643250
903d185fccf839df,-0.4158857289709896,-0.22823881514899097,1.3464367585999748,1.4467650152026903,-1.0028258002737525,-1.7326056674881685,1.876499956219623,-0.8805163146869964,-0.25232605453848017,-0.4609051744692134,0.10127259751792171,-0.04060767104542556,-0.8217677696078431,-0.630831688544076,-1.0433904660313496,-0.2211031964633824,-0.8795271651686679,-0.6581092625559635,-1.0003641525860294,-0.17163070372000752,-0.7623265199312135,-0.43484891142534227,-0.6143363081496175,-0.49315334324238225,undefined,1491901644324
903d185fccf839df,-0.4061836013780696,-0.3327276017265673,1.3413329262447047,1.4467808698067721,-1.0437525875554974,-1.723051127998155,1.8543070222681968,-1.028160895661121,-0.22378711415295555,-0.42454366681983874,0.11323392355516901,-0.050732878920163545,-0.7477857620320856,-0.6391641909861056,-1.0360220700502396,-0.2211031964633824,-0.8707497141228592,-0.6615733828305468,-0.9965578874262978,-0.1751261499612645,-0.763815131256435,-0.4333602422898673,-0.61638391505816,-0.4879456126760681,undefined,1491901644749
903d185fccf839df,-0.44776403482995186,-0.39142907231071367,1.443414656089096,1.519001158549541,-1.0333126056436033,-1.7473683854144744,1.9030794013008894,-0.7419280177561628,-0.2023420521760225,-0.4915235960557667,0.057477591464472046,-0.06750158746753897,-0.6607481060606061,-0.6150925086308371,-1.0518115583733607,-0.2554535245316525,-0.8527146196140121,-0.6662280957136634,-1.0010498393790672,-0.15145873916223687,-0.7630910205565656,-0.42353159653884825,-0.6122288968359572,-0.49068975788081115,undefined,1491901645844
