UUID,iqrAccX,iqrAccY,iqrAccZ,iqrAccXYZ,meanAccX,meanAccY,meanAccZ,meanAccXYZ, covarianceAccXY, covarianceAccXZ, covarianceAccYZ,pressureDerivative, pressureIQR, iqrGyroX, iqrGyroY, iqrGyroZ, iqrGyroMagnitude, meanGyroX, meanGyroY, meanGyroZ, meanGyroMagnitude, covarianceGyroXY, covarianceGyroXZ, covarianceGyroYZ, class, timestamp 
903d185fccf839df,-1.2405643832756714,-1.0799983958069095,-0.8087660499722795,-0.8160561925015686,-1.914889411887386,-1.6626260053043471,1.9008335428578047,-0.9129608248117541,-0.2831838993319096,-0.6827916652146037,0.09103922603491674,-0.07866105598813183,-0.9392686051693405,-1.159482849487611,-1.3139171271161598,-1.1667476750695471,-1.3714848347773916,-1.1631889626408292,-1.2948529253930228,-1.2078947538388445,-1.2925918467997166,-0.47725750937495937,-0.6724846985083321,-0.5298647720910473,undefined,1493660588510
903d185fccf839df,-1.2093790668131121,-1.0832269782965773,-0.8109988972099136,-0.850241963246814,-1.876009479052488,-1.6594116554102158,1.902095838045137,-0.8980521922894364,-0.28399576762394374,-0.6770609042859493,0.09025457176370932,0.03714696547730292,-0.8805181873885919,-1.1372628267870641,-1.3012855346171044,-1.0535936428061567,-1.3598691896403747,-1.1655110420052543,-1.283627607574374,-1.1451405095763687,-1.2771808655718486,-0.47729638796258683,-0.6734283538019343,-0.5271116438675925,undefined,1493660588798
903d185fccf839df,-0.9938537919081043,-0.9655304127172544,-0.6543671794456885,-0.7058769840704737,-1.1207821616997293,-1.525016215181562,1.7952111227634358,-0.6247844041798004,0.8079773456576168,-2.861935706936423,0.047332198517613104,-0.0005184356978243414,-0.9392686051693405,-0.37252405132498095,-0.8802323826010754,-0.5140913287135286,-0.6299781817906582,0.17638803592766278,-0.35019777659023044,0.07525663818946242,-0.14657659387164476,10.608237370566666,6.185228332970046,4.6327465392911815,undefined,1493660590022
903d185fccf839df,-0.8441641745474019,-0.7336592546353676,-0.6084304010157123,-0.6722865252025033,-0.817250150958407,-1.4066510409133643,1.7825023170963799,-0.13027766027081805,1.3279106238575833,-3.220089182981061,0.45378026834559315,-0.006420006991015875,-0.9392686051693405,0.3051863642188956,0.2397689766563446,0.8498190215397314,0.4768429813785115,0.75368179108828,-0.07893440426623807,0.5854828494900475,0.3102352041901608,12.25120366017028,8.890812249902988,5.607465659730447,undefined,1493660590328
903d185fccf839df,0.8259834629304847,1.9859841544602543,2.735387693048445,-0.522827586529626,-0.45956474207522974,-0.6684796363571492,0.9858444062636963,0.2811247318267436,2.2420755680368227,-3.488008302680722,-2.6977386908832304,0.0522727426242761,-0.8761663045900179,0.7403282318014943,0.5029272086299927,1.6176498825796095,0.9717674485944856,0.7264886343293847,0.14858915813150375,1.076721245556004,0.4728497537930089,10.693761886891888,7.908990688261652,6.974075729260478,undefined,1493660591487
903d185fccf839df,0.7497527142759135,2.457944329861819,3.5622505307330994,-0.5700443094870618,-0.42585789396112633,-0.5449439743065738,0.7757361249534787,0.1762063951543961,2.0878651066505807,-3.382507659515338,-3.184625842300081,0.05461583436678311,-0.7456098206327986,0.4533197452830124,0.27766377808077064,0.6659436387339202,0.7751834975315025,0.5864978236679232,0.05168332797005677,0.9239879180235668,0.3488895502857492,9.887521881127402,7.334009795050293,6.452441231038369,undefined,1493660591784
903d185fccf839df,0.7206463832552681,2.4896432566723434,3.592237134176245,-0.4950517811835718,-0.2936956841816285,-0.32040541580079734,0.4156900282653499,-0.15342012310501812,1.7589437589880317,-3.218220439577529,-3.3176314596197614,0.09065427109083078,-0.7086188168449198,0.25148800435572644,0.24608480143452827,0.05774070383565371,0.5184941180893408,0.37751068248948094,0.03897245899825042,0.6051988561131478,0.21237902558638236,7.606732399497119,5.727808748859155,4.845974722920232,undefined,1493660593005
903d185fccf839df,0.7400505694302886,2.5395397653366003,3.580752685431802,-0.49656203003037297,-0.15537599760516446,-0.2830853717798074,0.3799043452753252,-0.0474882512447415,1.9558223927667597,-3.3796681120910748,-3.296731716846405,0.10458191699618065,-0.7260263480392157,0.23111964778528815,0.3029269741222322,0.04561706029771846,0.6368311257860558,0.3479851456031989,0.10830141696557694,0.5855578629740036,0.23108184701383738,7.2114301418736275,5.500616345137083,4.607480066172279,undefined,1493660593312
903d185fccf839df,1.0657640395650878,2.5410071274639496,3.5329020492863963,-0.33334135488582073,0.15854007157358327,-0.13560006017066384,0.1865098506395125,-0.0030207018917588688,2.721306999154388,-3.5751598621711693,-3.072476014211173,0.16631462514814732,-0.43445020053475936,0.1820504451531566,0.2713479606648208,0.1284619483853688,0.41494144896141344,0.23908342511330294,0.07685179505926557,0.49093300688454167,0.16258113706793728,5.9936129135508365,4.499969347702648,3.7903198469364447,undefined,1493660594469
903d185fccf839df,0.9299345293074855,2.469097848650064,3.493345521923729,-0.2313864055883153,0.18015068673815993,-0.12751871695277767,0.09144035306470569,-0.4297853676398249,2.34448782816369,-3.3689275457552834,-2.833064737175214,0.164520119911277,-0.5693585672905526,-0.29475401234423704,0.2081900147345698,0.17897716747972772,0.04379991557679052,0.11058072563982241,0.04723935572426577,0.4532777980595859,0.09432368841846794,5.374448891062822,4.001218907058103,3.355603780305804,undefined,1493660594784
903d185fccf839df,0.8107371441230627,1.462365957752191,0.4832073681924933,0.42544865832658474,0.7003622125472051,0.26447006423726455,-0.3223387277204156,-0.07818127156384691,1.3932700440447838,-1.3779932407758297,-1.043146492344198,0.1255052894752767,-0.10805899064171122,-0.322529007533561,0.12924251422109345,0.0961322228626343,-0.1520164576025173,0.0026625358463931623,-0.015611596707856192,0.34700440258712034,0.005805039879690655,4.478670943830385,3.3368637080022236,2.7411571835186437,undefined,1493660596016
903d185fccf839df,0.7788589762857394,1.3660954980602835,0.20822445428721506,0.796517204156717,0.7925220565394999,0.3172972098178892,-0.429737374847764,-0.3230390126556032,1.097508135134804,-0.7810001839929533,-0.43603815167618326,0.0841768092408378,-0.19074476381461675,-0.37252402218573827,0.06082134416452043,0.08602913947315237,-0.19201932997365098,-0.01834395167345545,-0.032127075228839494,0.32996111494033686,-0.014018434252116288,4.362028166389586,3.2368948863324642,2.6593310355941275,undefined,1493660596479
903d185fccf839df,0.7455945191069224,1.230494682758335,0.06977598111728475,1.038460076407543,0.8588750844236942,0.43071718625750743,-0.6019449596495522,-0.44717303498322264,1.1298296893094237,-0.32717090043505864,0.3477342803026538,0.044583806280830876,-0.45620961452762926,-0.37437567212737877,0.06292664853951681,0.08602913947315237,-0.22511745900805816,-0.052742784003808676,-0.06668970790300001,0.3042439374652436,-0.046788479959326175,4.171495647814648,3.0753591970895893,2.5116778829032267,undefined,1493660597823
903d185fccf839df,0.7455945191069224,1.1565307929950401,0.06786194868270243,1.1208348446030914,0.8580008010256456,0.4603567552426896,-0.6132820536421891,-0.2981125266186715,1.1166582308602504,-0.322555721788701,0.3910704920880255,0.03103034168357761,-0.45620961452762926,-0.37437567212737877,0.06292664853951681,0.10219407289632346,-0.22511745900805816,-0.053727907138032445,-0.06831814189279374,0.30948523818785784,-0.047589944924158675,4.151600688287107,3.057479298114494,2.4956321756410027,undefined,1493660598062
903d185fccf839df,1.0089371837895542,0.6552195169514979,-0.24603975179422471,1.03426248014367,0.8275345611323305,0.48825871160554135,-0.7972606501922506,-0.716178669247937,1.2417636880980827,-0.15223903503780867,0.3315444393001525,-0.07218642754433909,-0.19509664661319073,-0.43270324102468377,-0.014968170337526173,0.09411162031709869,-0.39202694467043475,-0.1300071667322457,-0.14373096104677566,0.2874444236602724,-0.11397980100742179,3.769445650724316,2.6863339977159177,2.1751190813494783,undefined,1493660599246
903d185fccf839df,1.060219951866815,0.6693078769064112,-0.24603975179422471,1.1180181313685622,0.8394865417592049,0.4957495450678933,-0.7968635494764191,-0.6562015020980713,1.2822132168789158,-0.1590428868524607,0.326742105068938,-0.08017457103473877,0.031201258912655985,-0.4317774160538635,-0.023389270041771035,0.09007042935838822,-0.4018622760856241,-0.12868349832272247,-0.14723820748114738,0.28210085496126186,-0.1150934209751918,3.7504812906229845,2.671074337588764,2.1707876695831487,undefined,1493660599680
903d185fccf839df,1.0075514465346165,0.9974498454161136,-0.2587999680247736,1.1825086169597125,0.8448351054195212,0.5040952089557953,-0.7885586222490768,-0.5870060657724635,1.1969351265426083,-0.19375963773172344,0.34376455814608053,-0.15320445308356434,0.3314811720142603,-0.4354807159371445,-0.05707355106300982,0.025410921783476127,-0.3955665636782093,-0.15339545378985678,-0.16549554361057978,0.25445015416590366,-0.13778899672043846,3.64721264017939,2.5937404449792916,2.1078943225834372,undefined,1493660600643
903d185fccf839df,1.038043739095363,1.133637558804214,-0.25943797883630104,1.3774432281332056,0.8630099318244265,0.487876717673092,-0.7850452014499353,-0.6883956667152671,1.1750144300078043,-0.2106966217721587,0.34866168041351014,-0.17223497744181462,0.3401849376114082,-0.43733237882955955,-0.08128410964144073,0.04157581280956492,-0.3957887004720012,-0.16048727399038595,-0.17280298664265012,0.2529394289072293,-0.14392568341013154,3.628810976091376,2.570954535831847,2.090850284103038,undefined,1493660600876
903d185fccf839df,1.1115024439007979,1.1436166968603083,-0.19308475913609072,1.3877846027398948,0.8905035999022254,0.4960896155185874,-0.7680671736592286,-0.5985091497234832,1.204194399530711,-0.1864177666624594,0.37958537322822217,-0.20520036922717277,0.3662962344028521,-0.4280740384659352,-0.10549466821987162,0.06582305748835311,-0.39601083726579306,-0.1661369520375005,-0.17973422477936868,0.2548768179971407,-0.149382100836857,3.5903037145044334,2.536929094988293,2.0632107905389963,undefined,1493660602333
903d185fccf839df,1.1295206167776026,1.265715816469557,-0.19372276994761817,1.3889311757623477,0.8799607599356645,0.48544965091275544,-0.7671204434957345,-0.680510960647651,1.253454293710541,-0.18021870821232214,0.389796795870616,-0.20520036922717277,0.3662962344028521,-0.43733237882955955,-0.10654729095843464,0.06582309988543542,-0.40285303378730264,-0.16860409718667294,-0.18167858833009265,0.24996838602497506,-0.15217689037427387,3.5774476494865755,2.52847834877943,2.056916597984211,undefined,1493660602665
903d185fccf839df,1.0907121064059226,1.453560615868401,-0.12098941036501472,1.9993083046442914,1.008645118218631,0.48734332194701874,-0.7567590076131266,-0.5941237046034696,1.2229884325714073,-0.17824128098407552,0.3820045175691078,-0.24476762348906342,-0.27778241978609625,-0.44103578231903695,-0.10759991369699767,0.05774070383565371,-0.398423389515121,-0.18949618618001857,-0.189084566008121,0.23659887942316238,-0.165369543675067,3.490322351851857,2.460680142295185,2.0022048926101705,undefined,1493660603745
903d185fccf839df,1.0740799468273337,1.453560615868401,-0.1388537130877832,1.9993083046442914,1.0040474120165328,0.4835257002620051,-0.755609782370154,-0.62370184324468,1.2120460735463279,-0.17023300005959216,0.38657544052388293,-0.2584834470057121,1.07565313057041,-0.43918410000046004,-0.10654729095843464,0.03551399104059729,-0.40600809933865856,-0.19292233375929005,-0.18736423553633105,0.2364850041554279,-0.16589910075501063,3.4728881265317075,2.449400755284403,1.9929258031345858,undefined,1493660604177
903d185fccf839df,1.0740799468273337,1.4676489758233142,-0.14140578810101165,2.091993568284423,0.9936485721806074,0.49180614551523044,-0.7498768051235061,-0.5596464537800708,1.1799320548952892,-0.15372175162110158,0.38944873988095136,-0.27838358571532196,0.8711146390374332,-0.43733237882955955,-0.10549466821987162,0.05774070383565371,-0.39601083726579306,-0.18372252974217718,-0.17861493946098717,0.24558186279126826,-0.1571122354587538,3.4619653429975243,2.4439961160254615,1.963848293027921,undefined,1493660605242
903d185fccf839df,1.0740799468273337,1.4676489758233142,-0.14140578810101165,2.091993568284423,0.9930931445685371,0.4935880131757635,-0.7443463228744992,-0.5414432259846362,1.1713343873872575,-0.18136129242512755,0.3912346823966065,-0.23763603376652565,0.8188920454545455,-0.43733237882955955,-0.05707355106300982,0.06582305748835311,-0.3952933654261825,-0.18559355771231187,-0.17598763078238042,0.2499737611216977,-0.15639153257072227,3.4452607936246595,2.430256164943012,1.9591796603309404,undefined,1493660606242
903d185fccf839df,1.010323335109409,1.4676489758233142,-0.14331982053559397,2.091993568284423,1.0012702739561832,0.4927611335936467,-0.7403174597781064,-0.5404995609557118,1.1685915256951045,-0.1923983695948402,0.3882288926245255,-0.2187977067571482,0.8188920454545455,-0.43270320864774736,-0.0454945684186083,0.05976127811646779,-0.39250721098244223,-0.1826811578629135,-0.17041793823100604,0.24646458322332987,-0.15339297927953138,3.4396006034813236,2.4159790044744014,1.942947861903913,undefined,1493660607269
903d185fccf839df,1.010323335109409,1.4676489758233142,-0.14331982053559397,2.091993568284423,1.0012702739561832,0.4927611335936467,-0.7403174597781064,-0.5404995609557118,1.1685915256951045,-0.1923983695948402,0.3882288926245255,-0.2187977067571482,0.8188920454545455,-0.43270320864774736,-0.0454945684186083,0.05976127811646779,-0.39250721098244223,-0.1826811578629135,-0.17041793823100604,0.24646458322332987,-0.15339297927953138,3.4396006034813236,2.4159790044744014,1.942947861903913,undefined,1493660607297
903d185fccf839df,1.0740799468273337,1.5298725656241814,-0.14331982053559397,2.095749239011079,0.9965799965707623,0.4826918325051314,-0.737937485417523,-0.6133433541216105,1.2069730790119682,-0.19929805835633485,0.3889611021208236,-0.20774647060435364,0.6796317959001783,-0.43270320864774736,-0.0454945684186083,0.06582309988543542,-0.39250721098244223,-0.1830010327666334,-0.17235779252228972,0.24191180621250918,-0.15507922274466412,3.4259353747051144,2.405394901754247,1.9374325011587956,undefined,1493660608276
903d185fccf839df,1.010323335109409,1.608532809196386,-0.14140578810101165,2.19626472684799,1.0077194058732697,0.4675354718811742,-0.7407908250112532,-0.7186815251603044,1.220040881238804,-0.20211759852639843,0.40803321665229375,-0.16268246409030368,0.6578723819073085,-0.4391840417219746,-0.06759986679544557,0.05774070383565371,-0.3955665636782093,-0.18602024581330281,-0.17162658968142094,0.24083139678156298,-0.1561979233618699,3.410895074631027,2.3954501392575267,1.928355117000874,undefined,1493660609238
903d185fccf839df,1.0740799468273337,1.608532809196386,-0.14140578810101165,2.2238969791276175,0.9878988672380257,0.4611929527004153,-0.7411090315577049,-0.7718881334380993,1.2531403994211117,-0.1805598211731682,0.4167878948504219,-0.13502788629276627,0.6535204991087344,-0.4280740384659352,-0.03391558577420678,0.05774070383565371,-0.3897210565387023,-0.1832043447616763,-0.15724564806136032,0.23784878009743282,-0.14856151873351028,3.418297873033526,2.3819486789290694,1.9034219805222186,undefined,1493660610243
903d185fccf839df,1.0740799468273337,1.608532809196386,-0.14140578810101165,2.2238969791276175,0.9878988672380257,0.4611929527004153,-0.7411090315577049,-0.7718881334380993,1.2531403994211117,-0.1805598211731682,0.4167878948504219,-0.13502788629276627,0.6535204991087344,-0.4280740384659352,-0.03391558577420678,0.05774070383565371,-0.3897210565387023,-0.1832043447616763,-0.15724564806136032,0.23784878009743282,-0.14856151873351028,3.418297873033526,2.3819486789290694,1.9034219805222186,undefined,1493660610270
903d185fccf839df,1.0740799468273337,1.7124348145997796,-0.14331982053559397,2.265309561249253,0.9859137275915707,0.46758671509413424,-0.7389999270193471,-0.7240622006943296,1.242900371464608,-0.18164256079245458,0.415333079428065,-0.12271422927230373,0.6361129679144385,-0.42714821349511495,-0.05181036374785678,0.05976127811646779,-0.3957916663121634,-0.18168601272199614,-0.15747450800886922,0.24754208784234205,-0.14694370725633812,3.404351339697599,2.3757545059746588,1.8939827572604315,undefined,1493660611262
903d185fccf839df,1.0740799468273337,1.7723103444081612,-0.12162745294366084,2.2683316407171934,0.985090872116568,0.45134493034014395,-0.7353208283073801,-0.8133811602140366,1.316271188872172,-0.19875482983686474,0.39613321024506454,-0.1132042815551901,0.6274092023172906,-0.42529656355347445,-0.026547123532992527,0.07188492165440304,-0.39202694467043475,-0.17568527870302042,-0.12223161320592175,0.25569236306422155,-0.12645150716407755,3.5021268186089074,2.3803679949308147,1.9948141336051128,undefined,1493660612284
903d185fccf839df,1.026955494687998,1.7723103444081612,-0.12162745294366084,2.2683316407171934,1.0128622527200686,0.45509966401913066,-0.7349973621867362,-0.774247802400863,1.3434792411945766,-0.2282548097410501,0.3913776743150499,-0.11008348816801211,0.6012979055258467,-0.4262223885242947,-0.019178661291778275,0.06178185239728187,-0.4018622760856241,-0.17853505673402514,-0.11968961034330836,0.2512838283573839,-0.12670198554095569,3.484334478987227,2.37360898554563,1.9816744463575109,undefined,1493660613179
903d185fccf839df,1.026955494687998,1.7723103444081612,-0.12162745294366084,2.2683316407171934,1.0128622527200686,0.45509966401913066,-0.7349973621867362,-0.774247802400863,1.3434792411945766,-0.2282548097410501,0.3913776743150499,-0.11008348816801211,0.6012979055258467,-0.4262223885242947,-0.019178661291778275,0.06178185239728187,-0.4018622760856241,-0.17853505673402514,-0.11968961034330836,0.2512838283573839,-0.12670198554095569,3.484334478987227,2.37360898554563,1.9816744463575109,undefined,1493660613192
903d185fccf839df,1.026955494687998,1.7828763805504073,-0.14331982053559397,2.327051563007777,1.0261102309377288,0.47158369017004076,-0.7398230562563746,-0.6559067189374459,1.3700018377260885,-0.22867295783089805,0.38800065949427853,-0.12975187309257458,0.7666694518716578,-0.4262223885242947,-0.019178661291778275,0.07794678582045296,-0.39451575193272775,-0.18033890637238983,-0.08533592544357045,0.2536502125445959,-0.10774695443937263,3.437599976307524,2.361604591955809,2.0040631209023347,undefined,1493660614282
903d185fccf839df,1.0907121064059226,1.8597754622162783,-0.14140578810101165,2.413355117713194,1.0250919468969115,0.46205011358065257,-0.742647467926075,-0.7290522323504514,1.4052918187354675,-0.2179942812175818,0.39957169433474626,-0.12465452044427473,0.7579656862745099,-0.4308515522307196,-0.018126023828747666,0.07188492165440304,-0.39202694467043475,-0.18301420274620042,-0.08913477828008419,0.24804429984540197,-0.1114096777992155,3.4293723269959924,2.355785384270199,2.0034284930294333,undefined,1493660615211
903d185fccf839df,1.0033932686183302,1.9401966338708778,-0.1197134205090785,2.424339960382815,1.0317879363271256,0.4466771339200921,-0.7424344538455196,-0.8278928070630301,1.4350446169575977,-0.21397727906562866,0.38539887302665016,-0.10267454363580397,0.7536138034759359,-0.4289999022890791,-0.018126023828747666,0.07188492165440304,-0.37812864700923515,-0.17742720126330355,-0.09254418519101529,0.24441131230491575,-0.10960801251427654,3.405630274349399,2.3388056694149135,1.9994152212697085,undefined,1493660616256
903d185fccf839df,1.0033932686183302,1.9401966338708778,-0.1197134205090785,2.424339960382815,1.0317879363271256,0.4466771339200921,-0.7424344538455196,-0.8278928070630301,1.4350446169575977,-0.21397727906562866,0.38539887302665016,-0.10267454363580397,0.7536138034759359,-0.4289999022890791,-0.018126023828747666,0.07188492165440304,-0.37812864700923515,-0.17742720126330355,-0.09254418519101529,0.24441131230491575,-0.10960801251427654,3.405630274349399,2.3388056694149135,1.9994152212697085,undefined,1493660616282
903d185fccf839df,1.0740799468273337,1.9401966338708778,-0.09164094480187092,2.424339960382815,0.999336561240515,0.4403998343018075,-0.7337771322011426,-0.8627856955469115,1.4564418505866314,-0.26680486044116425,0.37178320980505086,-0.09110896020843459,0.7492619206773619,-0.433629065995504,-0.019178661291778275,0.06178185239728187,-0.39451575193272775,-0.17994995862819227,-0.09262951442239342,0.24516804280288665,-0.1108254030237451,3.3923112239418134,2.327771821297082,1.9906390088668393,undefined,1493660617220
903d185fccf839df,1.054675760652313,1.9401966338708778,-0.11779938807449618,2.424339960382815,0.9835891590246068,0.44208620371117735,-0.7390157058073941,-0.861249913592952,1.4340901760695117,-0.2714338057503815,0.3607632828936661,-0.08975014709568044,0.6535204991087344,-0.4317774160538635,-0.019178661291778275,0.06178185239728187,-0.39451575193272775,-0.17898205162096587,-0.0949936305126854,0.24374474045988775,-0.11171209857701554,3.3777378169745536,2.316980179562217,1.9832563802650405,undefined,1493660618247
903d185fccf839df,1.054675760652313,1.9401966338708778,-0.11779938807449618,2.413355117713194,0.980390307283653,0.452635328539752,-0.7400360705988103,-0.7866582927251075,1.406570141065199,-0.26886138659973524,0.3627980654437889,-0.10616431280132642,0.6535204991087344,-0.43270324102468377,-0.026547123532992527,0.05167885380196455,-0.39202694467043475,-0.18122194699097738,-0.09900209862044256,0.2407966155895108,-0.11486883116354767,3.369339016115721,2.3088263319511877,1.9792308320163374,undefined,1493660620465
903d185fccf839df,1.054675760652313,1.9401966338708778,-0.11779938807449618,2.413355117713194,0.980390307283653,0.452635328539752,-0.7400360705988103,-0.7866582927251075,1.406570141065199,-0.26886138659973524,0.3627980654437889,-0.10616431280132642,0.6535204991087344,-0.43270324102468377,-0.026547123532992527,0.05167885380196455,-0.39202694467043475,-0.18122194699097738,-0.09900209862044256,0.2407966155895108,-0.11486883116354767,3.369339016115721,2.3088263319511877,1.9792308320163374,undefined,1493660620495
903d185fccf839df,1.0227974547933507,1.7828763805504073,-0.15544199418749677,2.327051563007777,0.9900382911977604,0.4720751596309652,-0.7506447081154356,-0.6779195122590258,1.4948028468333543,-0.23763880068232704,0.37840115890546633,-0.08403453443634842,0.6361129679144385,-0.4262223885242947,-0.03391558577420678,0.06582314228251772,-0.4018622760856241,-0.19047171339550187,-0.10666636022475735,0.24494422066713673,-0.12107056862337344,3.3430843936287884,2.2735070955990926,1.9502092665317494,undefined,1493660623452
903d185fccf839df,1.0227974547933507,1.7828763805504073,-0.15544199418749677,2.327051563007777,0.9900382911977604,0.4720751596309652,-0.7506447081154356,-0.6779195122590258,1.4948028468333543,-0.23763880068232704,0.37840115890546633,-0.08403453443634842,0.6361129679144385,-0.4262223885242947,-0.03391558577420678,0.06582314228251772,-0.4018622760856241,-0.19047171339550187,-0.10666636022475735,0.24494422066713673,-0.12107056862337344,3.3430843936287884,2.2735070955990926,1.9502092665317494,undefined,1493660623480
903d185fccf839df,0.9673569228647206,1.8492091922500935,-0.1579940692007252,2.327051563007777,0.9847823000011002,0.45929229610082667,-0.7495848962065945,-0.778491254574578,1.5036944375621906,-0.25277456753483085,0.38892155618810137,-0.07388002354734063,0.4446301247771836,-0.4308515522307196,-0.026547123532992527,0.06380249733989979,-0.4017702210022619,-0.19455563273729792,-0.10442682965998488,0.240461245900669,-0.12229405722195884,3.3150990285302315,2.2563506261959057,1.9264643598367603,undefined,1493660625268
903d185fccf839df,0.9673569228647206,1.8492091922500935,-0.1579940692007252,2.327051563007777,0.9847823000011002,0.45929229610082667,-0.7495848962065945,-0.778491254574578,1.5036944375621906,-0.25277456753483085,0.38892155618810137,-0.07388002354734063,0.4446301247771836,-0.4308515522307196,-0.026547123532992527,0.06380249733989979,-0.4017702210022619,-0.19455563273729792,-0.10442682965998488,0.240461245900669,-0.12229405722195884,3.3150990285302315,2.2563506261959057,1.9264643598367603,undefined,1493660625310
903d185fccf839df,0.9770590159522309,1.8492091922500935,-0.158632048245134,2.2683316407171934,0.9406155182582658,0.45069740246728607,-0.7591310919454449,-0.8727424814704285,1.4858119303831518,-0.29917911466854685,0.3772347622198171,-0.05702723458660043,0.32277740641711233,-0.4354807159371445,-0.036020860700268,0.049658208859346624,-0.4090246900717955,-0.19579923130873533,-0.10365291625992383,0.23964523575786736,-0.12296152564264382,3.301800949535387,2.246817970675616,1.917943094819539,undefined,1493660626308
903d185fccf839df,1.0075514465346165,1.850383456070275,-0.158632048245134,2.2683316407171934,0.9264418269270446,0.45565402241387976,-0.7588996690442338,-0.8381888804583076,1.4466190077896997,-0.2876485015651705,0.37223382841466296,-0.051461190129490145,0.32277740641711233,-0.4280740384659352,-0.019178661291778275,0.06582314228251772,-0.40167816591889915,-0.19915678886371063,-0.09966892252311559,0.24529276113224585,-0.12143545082351954,3.2817255811359836,2.2307731885902657,1.9187171008537975,undefined,1493660627243
903d185fccf839df,0.9770590159522309,1.850383456070275,-0.1630982509943008,2.2683316407171934,0.9362955245818688,0.4498938143268984,-0.7597306879862676,-0.8798808714505595,1.475276565359333,-0.2761005422314992,0.3656353491383839,-0.04823616248317887,0.32277740641711233,-0.43733237882955955,-0.019178661291778275,0.05774067557093217,-0.393678138975124,-0.19952181208927264,-0.09639017913655677,0.2425566788248008,-0.12066702618692397,3.26849095539303,2.2213889982006347,1.906933065089438,undefined,1493660628259
903d185fccf839df,0.9770590159522309,1.850383456070275,-0.1630982509943008,2.2683316407171934,0.9362955245818688,0.4498938143268984,-0.7597306879862676,-0.8798808714505595,1.475276565359333,-0.2761005422314992,0.3656353491383839,-0.04823616248317887,0.32277740641711233,-0.43733237882955955,-0.019178661291778275,0.05774067557093217,-0.393678138975124,-0.19952181208927264,-0.09639017913655677,0.2425566788248008,-0.12066702618692397,3.26849095539303,2.2213889982006347,1.906933065089438,undefined,1493660628285
903d185fccf839df,0.9036003111467961,1.850383456070275,-0.21924320240871598,2.2683316407171934,0.9326543893226398,0.4482144330922854,-0.7645064157900967,-0.8992518910290757,1.4653933863852513,-0.2918414917006021,0.35522593894967447,-0.01568407914984553,0.32277740641711233,-0.43825821027576706,-0.02338919641943312,0.06380249733989979,-0.37064093215693494,-0.19921149786569045,-0.08843480533493554,0.24192534254804074,-0.11621684634096245,3.2548883102807458,2.2215906729143167,1.8932169232961038,undefined,1493660629284
903d185fccf839df,0.9036003111467961,1.9372616757922403,-0.2179671807856611,2.327051563007777,0.9445343721887972,0.45969059515584365,-0.7671625199071836,-0.8134193914337815,1.5759627012793505,-0.318180563608095,0.344376979307895,-0.027017728165638216,-0.3822276069518717,-0.43825821027576706,-0.03181025195027524,0.06380249733989979,-0.3737068752161832,-0.19928116024060505,-0.0858739724684328,0.2458211494748105,-0.11444659440972801,3.250396252973095,2.2174769483033674,1.886824793837363,undefined,1493660630246
903d185fccf839df,0.9340927417291816,1.870928864092554,-0.20137889968594752,2.324029483539837,0.9245698334549257,0.4640066754043368,-0.7706838300839812,-0.7917718535587808,1.594112429831821,-0.2983482076313942,0.35057894889476576,-0.004632760474040739,-0.5084322081105169,-0.4410357175651642,-0.032862918862241006,0.05774067557093217,-0.35743155144322025,-0.19903417542057672,-0.07905907871125158,0.2520113247192277,-0.11029984537434485,3.239282750804035,2.2113346437238817,1.8785390002740652,undefined,1493660631255
903d185fccf839df,0.9340927417291816,1.870928864092554,-0.20137889968594752,2.324029483539837,0.9245698334549257,0.4640066754043368,-0.7706838300839812,-0.7917718535587808,1.594112429831821,-0.2983482076313942,0.35057894889476576,-0.004632760474040739,-0.5084322081105169,-0.4410357175651642,-0.032862918862241006,0.05774067557093217,-0.35743155144322025,-0.19903417542057672,-0.07905907871125158,0.2520113247192277,-0.11029984537434485,3.239282750804035,2.2113346437238817,1.8785390002740652,undefined,1493660631283
903d185fccf839df,0.9340927417291816,1.9372616757922403,-0.2179671807856611,2.327051563007777,0.9110029999634205,0.45379063146000154,-0.7698843691108617,-0.8709102386484604,1.6314017540774635,-0.289408134906085,0.35679570549548945,0.006884309111596103,-0.5127840909090909,-0.441961555486759,-0.034968193788302224,0.05774067557093217,-0.3602321559233155,-0.1952914056463347,-0.07732386966277215,0.2541979039726005,-0.10754683839301085,3.231627161230936,2.205000072718944,1.8727373187995249,undefined,1493660632281
903d185fccf839df,0.9036003111467961,2.028249117413025,-0.24476363486981378,2.413355117713194,0.9171435612694321,0.4404603949264773,-0.7786731809284211,-0.980011147876575,1.6583461762384417,-0.258640824431442,0.3581242623616251,0.010300277981985113,-0.5127840909090909,-0.45121990880115787,-0.041283989117550705,0.05572005889303579,-0.36512613323348697,-0.19202993965801463,-0.07327271609788831,0.2555221702271318,-0.10429268591783857,3.224519918203223,2.199436484753004,1.8642971324920037,undefined,1493660633222
903d185fccf839df,0.8731080185860495,1.970721647597129,-0.24476363486981378,2.365620038092231,0.8960373109865046,0.42498958731390224,-0.7789913874421377,-1.102758467058938,1.6323726029870558,-0.2377067574884318,0.37793342042863465,0.03580067558673936,-0.5127840909090909,-0.45584907898297006,-0.04759978444679919,0.05167883966960378,-0.3701844762840445,-0.1910356674951274,-0.06983028499975386,0.2567848427268028,-0.10212184658307678,3.217783146479626,2.1968011196842014,1.857159806362864,undefined,1493660634279
903d185fccf839df,0.8731080185860495,1.970721647597129,-0.24476363486981378,2.365620038092231,0.8960373109865046,0.42498958731390224,-0.7789913874421377,-1.102758467058938,1.6323726029870558,-0.2377067574884318,0.37793342042863465,0.03580067558673936,-0.5127840909090909,-0.45584907898297006,-0.04759978444679919,0.05167883966960378,-0.3701844762840445,-0.1910356674951274,-0.06983028499975386,0.2567848427268028,-0.10212184658307678,3.217783146479626,2.1968011196842014,1.857159806362864,undefined,1493660634307
903d185fccf839df,0.8523175430695353,1.970721647597129,-0.2562478294773078,2.365620038092231,0.8834579024261758,0.42550202129909837,-0.7846980667012059,-1.1085822259642086,1.6192361311348826,-0.24116393751485973,0.3695421856770117,0.029573575209271216,-0.5127840909090909,-0.4595524177185747,-0.048652421909829796,0.05167883966960378,-0.3780434945242011,-0.1896170880892448,-0.06773124170004816,0.25623049869073633,-0.10071303317939743,3.2123226146805446,2.194914113935503,1.8536632090172418,undefined,1493660635288
903d185fccf839df,0.8828099736519208,2.057599867319094,-0.2747502700800784,2.424339960382815,0.8752396302903866,0.4314998124830555,-0.7903495200527565,-1.0702592560540372,1.5919174564840057,-0.22822870233966527,0.3547145014244745,-0.0005673122080004386,-0.5127840909090909,-0.4614041129879261,-0.0444419309555777,0.04763763457853254,-0.3733172677499069,-0.1854500112657909,-0.06202884089060987,0.26078843859668654,-0.09614203845585255,3.2047262901335674,2.1885474310061346,1.8441361425358858,undefined,1493660636264
903d185fccf839df,0.8828099736519208,2.2061150125797133,-0.2747502700800784,2.424339960382815,0.8711767798141533,0.44429199481660114,-0.7907334717185343,-0.9789386787114707,1.596128196358546,-0.22451225107190073,0.3390586749807441,-0.011195999327780044,-0.6825075200534759,-0.46325577588034117,-0.046547191157171326,0.04763763457853254,-0.37572841490952136,-0.182574854852865,-0.06047554888822175,0.2612503919331504,-0.09413238549151795,3.1973391410852474,2.1837001695126577,1.8405285966611165,undefined,1493660637247
903d185fccf839df,0.8828099736519208,2.2061150125797133,-0.2747502700800784,2.424339960382815,0.8711767798141533,0.44429199481660114,-0.7907334717185343,-0.9789386787114707,1.596128196358546,-0.22451225107190073,0.3390586749807441,-0.011195999327780044,-0.6825075200534759,-0.46325577588034117,-0.046547191157171326,0.04763763457853254,-0.37572841490952136,-0.182574854852865,-0.06047554888822175,0.2612503919331504,-0.09413238549151795,3.1973391410852474,2.1837001695126577,1.8405285966611165,undefined,1493660637276
903d185fccf839df,0.903600449168435,2.1885045626360715,-0.2734742484570235,2.4187549413981007,0.890534462276717,0.4653739412067792,-0.7914119616668561,-0.8164721079435994,1.627363146364354,-0.23715078893165986,0.32100455063849787,0.0018544969777019697,-0.691211285650624,-0.4614041129879261,-0.04970508882179557,0.06178190892672494,-0.37799110868844693,-0.1828218396728933,-0.05831353432121135,0.2678717231250336,-0.0922559109006614,3.1943397234030293,2.177533025888405,1.8310320890343275,undefined,1493660638264
903d185fccf839df,0.8731080185860495,2.0975171210152874,-0.24731567811592356,2.3294293072247436,0.9078658613204154,0.47582989655724506,-0.7870938200585219,-0.727969675215064,1.5810659084968732,-0.23947179204910668,0.31712711663523496,0.011433714641493651,-0.691211285650624,-0.46325577588034117,-0.05917878181566829,0.053699470479860935,-0.3801183318732467,-0.1804786505454782,-0.056529347633297485,0.27130557649994247,-0.09018344903645918,3.188180456588286,2.1731823580420015,1.8242986186046064,undefined,1493660639249
903d185fccf839df,0.9451807100932687,1.9713087795072197,-0.24731567811592356,2.301797054945116,0.9353801012844191,0.48522371939336884,-0.78586044105561,-0.6459677388324337,1.5124462477648006,-0.25214653436265916,0.3086685900847354,0.0009201466249699946,-0.7826008244206774,-0.46325577588034117,-0.064441910232951,0.0577406614385714,-0.354741795102917,-0.180016345651492,-0.045481382910351684,0.2794975491004222,-0.08335376578469987,3.169109057795036,2.1645517971325807,1.8265846350199995,undefined,1493660640260
903d185fccf839df,0.9451807100932687,1.9713087795072197,-0.24731567811592356,2.301797054945116,0.9353801012844191,0.48522371939336884,-0.78586044105561,-0.6459677388324337,1.5124462477648006,-0.25214653436265916,0.3086685900847354,0.0009201466249699946,-0.7826008244206774,-0.46325577588034117,-0.064441910232951,0.0577406614385714,-0.354741795102917,-0.180016345651492,-0.045481382910351684,0.2794975491004222,-0.08335376578469987,3.169109057795036,2.1645517971325807,1.8265846350199995,undefined,1493660640281
903d185fccf839df,0.8897401781646385,1.892648535935015,-0.24731567811592356,2.283006232598699,0.9512920744929013,0.4960220721119868,-0.7849005620057379,-0.5604208808140689,1.4684370507437066,-0.2543118013486153,0.30654511973313525,0.0048442783235722285,-0.7826008244206774,-0.46418161380193595,-0.064441910232951,0.04359640122273977,-0.354741795102917,-0.17866742870911076,-0.04543240522809786,0.2829006055171268,-0.08211407074413055,3.1659230534697,2.159860337132532,1.8208351257490147,undefined,1493660641290
903d185fccf839df,0.8897401781646385,1.892648535935015,-0.24731567811592356,2.283006232598699,0.9514155027373316,0.49469906459504015,-0.7860182295253093,-0.571146126663257,1.4706433565441073,-0.252065717477322,0.3111844666727606,-0.0053069162103193505,-0.7913045900178254,-0.4651074517235308,-0.05181029012551887,0.04359640122273977,-0.32790458669984585,-0.17773648601621755,-0.03678434727814379,0.2827928163990028,-0.0769339607262275,3.151659854073075,2.158311477873542,1.8021772461562087,undefined,1493660642234
903d185fccf839df,0.8412297127270871,1.892648535935015,-0.24731567811592356,2.283006232598699,0.9259069737938548,0.4918900020466579,-0.7861812775037307,-0.6041331961704232,1.499997878488596,-0.22663492994524034,0.31501564457017495,0.018602260510839304,-0.8043602384135473,-0.4549232734383116,-0.038126076728458885,0.04359640122273977,-0.31176961907050216,-0.17384172559371813,-0.02365133328097202,0.28237705833156623,-0.06872191190032187,3.148041627371951,2.1517984677501625,1.7744064899980772,undefined,1493660643280
903d185fccf839df,0.8412297127270871,1.892648535935015,-0.24731567811592356,2.283006232598699,0.9259069737938548,0.4918900020466579,-0.7861812775037307,-0.6041331961704232,1.499997878488596,-0.22663492994524034,0.31501564457017495,0.018602260510839304,-0.8043602384135473,-0.4549232734383116,-0.038126076728458885,0.04359640122273977,-0.31176961907050216,-0.17384172559371813,-0.02365133328097202,0.28237705833156623,-0.06872191190032187,3.148041627371951,2.1517984677501625,1.7744064899980772,undefined,1493660643308
903d185fccf839df,0.820439237210573,1.892648535935015,-0.21924320240871598,2.283006232598699,0.898608734794004,0.4906415291844004,-0.7826231500129718,-0.6206941600329019,1.4170600194119791,-0.21914182388583553,0.3292954546261854,0.048219331138992884,-0.8957497771836007,-0.4549232734383116,-0.04654714698376858,0.037534565321411376,-0.31228504645617494,-0.1733667548234504,-0.021069510012424627,0.29229365746822095,-0.06563445370383732,3.1427672632489516,2.141376195942416,1.7632805529784918,undefined,1493660644379
903d185fccf839df,0.8051930909301998,1.880908235972587,-0.21924320240871598,2.277606408913792,0.8684099264165726,0.48009706190193296,-0.7833437166857716,-0.7087090863748121,1.3687055749848793,-0.2305913581858907,0.3227642911490871,0.048219331138992884,-0.8957497771836007,-0.44844243388869715,-0.03812609145292647,0.02945214100690813,-0.3120501306308858,-0.1692250097359494,-0.012253528430152566,0.29471121336290085,-0.059661668024538435,3.137917124615902,2.1352485925348663,1.750348882305823,undefined,1493660645210
903d185fccf839df,0.8051930909301998,1.880908235972587,-0.24731567811592356,2.277606408913792,0.8408956849161685,0.48460647020919934,-0.7888321217520097,-0.6986660012124672,1.3213251694706734,-0.2960889675078874,0.3035484582426734,0.015534710427548087,-0.7477857620320856,-0.45307161054589656,-0.03812610617739405,0.025410935915836895,-0.3286736275575138,-0.16792675625440076,-0.005480615232378196,0.298837996580958,-0.05546118378407344,3.1260625521570207,2.1300220304959714,1.7412810021311436,undefined,1493660646250
903d185fccf839df,0.8051930909301998,1.880908235972587,-0.24731567811592356,2.277606408913792,0.8408956849161685,0.48460647020919934,-0.7888321217520097,-0.6986660012124672,1.3213251694706734,-0.2960889675078874,0.3035484582426734,0.015534710427548087,-0.7477857620320856,-0.45307161054589656,-0.03812610617739405,0.025410935915836895,-0.3286736275575138,-0.16792675625440076,-0.005480615232378196,0.298837996580958,-0.05546118378407344,3.1260625521570207,2.1300220304959714,1.7412810021311436,undefined,1493660646275
903d185fccf839df,0.8051930909301998,1.880908235972587,-0.24731567811592356,2.277606408913792,0.831885410781551,0.4828548821651528,-0.7884744684809539,-0.7165305863889496,1.2739210316691996,-0.30085371091621627,0.3026211969632957,0.005146516820893352,-0.7086188168449198,-0.45307161054589656,-0.05391559450051525,0.025410935915836895,-0.3426035150980633,-0.16595087787134777,-0.0011006116602807919,0.30027005191322653,-0.05268274005339198,3.1195120283750613,2.127020845350221,1.7344791324705062,undefined,1493660647272
903d185fccf839df,0.8051930909301998,1.880908235972587,-0.24731567811592356,2.277606408913792,0.8532899439399844,0.4837469803819463,-0.7881746706242179,-0.696194395121397,1.3578265943152787,-0.30216166239838815,0.30377193596810836,0.012673639465539115,-0.9044535427807487,-0.45121996060425607,-0.046547191157171326,0.025410935915836895,-0.3368403826261515,-0.1608085275222554,0.006973707761083395,0.30002367678608594,-0.04721653290244857,3.114253655061937,2.1210794171086547,1.7230227713844193,undefined,1493660648339
903d185fccf839df,0.8356855215125852,1.732393090711968,-0.24731567811592356,2.2188864866232083,0.833726548248837,0.47325142846718316,-0.7865888976952969,-0.7783709331291683,1.3711906008792059,-0.29758512967316064,0.3105319890990842,0.025831059517073433,-0.7086188168449198,-0.46140413888947523,-0.041284033290953454,0.025410935915836895,-0.3286783243400886,-0.16004857426989522,0.01710508951902013,0.2994077388605359,-0.041434606116452256,3.0966896433555844,2.1206069448679354,1.7047553847661954,undefined,1493660649234
903d185fccf839df,0.8356855215125852,1.732393090711968,-0.24731567811592356,2.2188864866232083,0.833726548248837,0.47325142846718316,-0.7865888976952969,-0.7783709331291683,1.3711906008792059,-0.29758512967316064,0.3105319890990842,0.025831059517073433,-0.7086188168449198,-0.46140413888947523,-0.041284033290953454,0.025410935915836895,-0.3286783243400886,-0.16004857426989522,0.01710508951902013,0.2994077388605359,-0.041434606116452256,3.0966896433555844,2.1206069448679354,1.7047553847661954,undefined,1493660649256
903d185fccf839df,0.8356855215125852,1.8110533342841726,-0.24731567811592356,2.2376773089696256,0.8363185434304082,0.4605594033226047,-0.7860866049718601,-0.8606892524471174,1.3798592053444456,-0.2980231660344046,0.3075002727578749,0.016933801249604946,-0.7129706996434938,-0.4567749363307267,-0.04549455369414072,0.01934911414686927,-0.33727434147296176,-0.15652745767385184,0.01928809456147984,0.30234884208886215,-0.03882402861462982,3.0888564555917393,2.115227313566032,1.6987418375135468,undefined,1493660650241
903d185fccf839df,0.8356855215125852,1.9372616757922403,-0.24859169973897846,2.265309561249253,0.8370488272099547,0.44461576153642435,-0.7824627322963049,-0.9683468781848065,1.396257287056026,-0.30247572869267064,0.30720213069178226,0.0032472780921008635,-0.7129706996434938,-0.4539973966643932,-0.03391558577420678,0.015307894923437267,-0.33885941917509094,-0.1526200315743909,0.025424297657506416,0.30541313277306,-0.03435662405197967,3.081755386056478,2.110290536612752,1.6903777463234044,undefined,1493660651369
903d185fccf839df,0.8051930909301998,1.9413708976910593,-0.24859169973897846,2.35463519542261,0.846573382623565,0.4305518148988921,-0.7827599003823125,-1.0718608139716048,1.4505796216778863,-0.31123091139569464,0.325977869575235,0.013818617277219834,-0.7129706996434938,-0.4539973966643932,-0.03391558577420678,0.015307894923437267,-0.33885941917509094,-0.15245537503324202,0.026095991501667287,0.3091703534081047,-0.03325232491806051,3.0800372551939272,2.105638705476114,1.6832300215744735,undefined,1493660654265
903d185fccf839df,0.8051930909301998,1.9413708976910593,-0.24859169973897846,2.35463519542261,0.846573382623565,0.4305518148988921,-0.7827599003823125,-1.0718608139716048,1.4505796216778863,-0.31123091139569464,0.325977869575235,0.013818617277219834,-0.7129706996434938,-0.4539973966643932,-0.03391558577420678,0.015307894923437267,-0.33885941917509094,-0.15245537503324202,0.026095991501667287,0.3091703534081047,-0.03325232491806051,3.0800372551939272,2.105638705476114,1.6832300215744735,undefined,1493660655182
903d185fccf839df,0.8356855215125852,1.9413708976910593,-0.24859169973897846,2.35463519542261,0.8397642506359556,0.424388649282988,-0.7825626649261287,-1.1196209552201024,1.4607940888562156,-0.3062373056341242,0.3326687791683354,0.00842650009631667,-0.7129706996434938,-0.4539973966643932,-0.036020860700268,0.013287292377901647,-0.34112702186075056,-0.15238571263618078,0.03025909394270498,0.3133125351927689,-0.03060202985797563,3.07205695711537,2.1008986256769497,1.6747368141534837,undefined,1493660655830
903d185fccf839df,0.8731078805644106,2.028249117413025,-0.28495844306451756,2.35463519542261,0.837089968933831,0.431599974311013,-0.7862969897727126,-1.070045657806278,1.4326930576690262,-0.297537064075005,0.3283147003591346,0.02240693092936587,-0.6825075200534759,-0.4558490725075828,-0.02759977572049072,0.007225456476573255,-0.35938749058161196,-0.14446320014559355,0.04068434206331509,0.3209809607288487,-0.02156907228040982,3.06578008113149,2.0972278280541117,1.662560537880727,undefined,1493660657153
903d185fccf839df,0.8731078805644106,2.028249117413025,-0.28495844306451756,2.35463519542261,0.837089968933831,0.431599974311013,-0.7862969897727126,-1.070045657806278,1.4326930576690262,-0.297537064075005,0.3283147003591346,0.02240693092936587,-0.6825075200534759,-0.4558490725075828,-0.02759977572049072,0.007225456476573255,-0.35938749058161196,-0.14446320014559355,0.04068434206331509,0.3209809607288487,-0.02156907228040982,3.06578008113149,2.0972278280541117,1.662560537880727,undefined,1493660657193
903d185fccf839df,0.8786519337572736,2.080493335333859,-0.28368242144146266,2.4187549413981007,0.8260739868514868,0.4482027910826131,-0.7869149942413705,-0.9485403882816213,1.3735559117197138,-0.2866094165594369,0.30901195171150936,0.017316589108996985,-0.6999150512477719,-0.45492326048753706,-0.02759977572049072,0.013287292377901647,-0.37139281860629714,-0.13939051223231924,0.04048143454177447,0.3272019325276007,-0.017902676475880595,3.054075272172127,2.0937125036374007,1.6522488628680023,undefined,1493660658393
903d185fccf839df,0.8786519337572736,2.080493335333859,-0.24731567811592356,2.4187549413981007,0.8264442715847782,0.45673013545282737,-0.7834988762685887,-0.8838799793991536,1.3812947232874166,-0.28325741089399514,0.30710061875113215,0.017316589108996985,-0.6999150512477719,-0.4577007613015469,-0.02759977572049072,0.001163648839966399,-0.37139281860629714,-0.13861156016553655,0.04059338351580121,0.3298812620083302,-0.01716177678794602,3.052299106443784,2.0901730534831433,1.6481428405894878,undefined,1493660659047
903d185fccf839df,0.8994421332305098,1.9895058937130745,-0.21924320240871598,2.3294293072247436,0.8095448703723194,0.4632147376238036,-0.780345738773112,-0.8423638698981678,1.4037239960071306,-0.2881132469351643,0.3021877047120563,0.014437883244693731,-0.7216744652406417,-0.4577007613015469,-0.02759977572049072,-0.006918775474536844,-0.37419376487197276,-0.1392638534695046,0.041950764887047146,0.3335614903488318,-0.01636695511514861,3.0512784411184923,2.087864354597782,1.6429644213940184,undefined,1493660660102
903d185fccf839df,0.8994421332305098,1.9895058937130745,-0.21924320240871598,2.3294293072247436,0.8095448703723194,0.4632147376238036,-0.780345738773112,-0.8423638698981678,1.4037239960071306,-0.2881132469351643,0.3021877047120563,0.014437883244693731,-0.7216744652406417,-0.4577007613015469,-0.02759977572049072,-0.006918775474536844,-0.37419376487197276,-0.1392638534695046,0.041950764887047146,0.3335614903488318,-0.01636695511514861,3.0512784411184923,2.087864354597782,1.6429644213940184,undefined,1493660660128
903d185fccf839df,0.8994421332305098,1.8632975522050068,-0.20456892197646606,2.301797054945116,0.8040523073495679,0.47113182191240394,-0.7816764207005892,-0.7935075817395876,1.4180419659513894,-0.2849362277288216,0.30121320696115234,0.011696849757782858,-0.7216744652406417,-0.45955243714473654,-0.03075767338511496,-0.006918775474536844,-0.38596338530529084,-0.13868122262903793,0.043007283249903716,0.33762668005435,-0.015031172400594496,3.04837320592422,2.0835220555703553,1.6369505683795784,undefined,1493660661103
903d185fccf839df,0.9382505055805509,1.8632975522050068,-0.20456892197646606,2.301797054945116,0.7887369039891656,0.4726994002371847,-0.7809847818658894,-0.7921682886513284,1.4776509247175402,-0.28664212291986674,0.29734621812365525,0.00365331715941065,-0.6999150512477719,-0.45955243714473654,-0.01496815561305859,-0.006918775474536844,-0.388505028448199,-0.13676234054529823,0.06257736318021388,0.33781146134585616,-0.003850616716154579,3.036990338332645,2.082647855311806,1.6279013574552865,undefined,1493660662151
903d185fccf839df,0.9396365188787666,1.8632975522050068,-0.20456892197646606,2.301797054945116,0.7797883470495635,0.4756598631874941,-0.7825968529603871,-0.7817924777864229,1.5064922907721192,-0.28109722799875014,0.3047210843261505,0.014132342213495613,-0.7216744652406417,-0.4614041000371516,-0.004441825156155261,0.001163648839966399,-0.3833399534629146,-0.13333621803243906,0.07762050594112953,0.3331303339167227,0.004326061652977084,3.0265465779914718,2.0819895723483697,1.6023702568241915,undefined,1493660663247
903d185fccf839df,0.9396365188787666,1.8632975522050068,-0.20456892197646606,2.301797054945116,0.7797883470495635,0.4756598631874941,-0.7825968529603871,-0.7817924777864229,1.5064922907721192,-0.28109722799875014,0.3047210843261505,0.014132342213495613,-0.7216744652406417,-0.4614041000371516,-0.004441825156155261,0.001163648839966399,-0.3833399534629146,-0.13333621803243906,0.07762050594112953,0.3331303339167227,0.004326061652977084,3.0265465779914718,2.0819895723483697,1.6023702568241915,undefined,1493660663289
903d185fccf839df,0.9618127316502187,1.8632975522050068,-0.23008935443756387,2.301797054945116,0.7761060669936573,0.47404337088670573,-0.7868098021682948,-0.8019453519865126,1.522924366006598,-0.2683229567046191,0.32358743457590355,0.01712619388536529,-0.6999150512477719,-0.4614041000371516,0.0018739554486256367,0.013287292377901647,-0.3702017503340374,-0.13115768554029628,0.08845856619096551,0.33035861380370274,0.010526829610564744,3.020744837472676,2.0801591942897737,1.581919218882629,undefined,1493660664200
903d185fccf839df,0.9618127316502187,1.8632975522050068,-0.23008935443756387,2.301797054945116,0.7761060669936573,0.47404337088670573,-0.7868098021682948,-0.8019453519865126,1.522924366006598,-0.2683229567046191,0.32358743457590355,0.01712619388536529,-0.6999150512477719,-0.44381327018227223,0.0018739554486256367,0.01934911414686927,-0.350404956065629,-0.12763023599503903,0.08811572242742309,0.34027521229416646,0.013708916608869534,3.014646224326419,2.0810886392216754,1.5692850225976627,undefined,1493660665247
903d185fccf839df,0.9618127316502187,1.9595684795447916,-0.29835663833947523,2.3463217951815785,0.76820665115598,0.4732863693409691,-0.7967530988848569,-0.8218491351944345,1.501467070726719,-0.2809711424985306,0.29948945786473374,0.01446018375310007,-0.7086188168449198,-0.44381327018227223,0.008189750777874118,0.025410935915836895,-0.3365683809092505,-0.12868783769435999,0.09385310737076664,0.3478050525078075,0.016744683970321084,3.010836284014983,2.0780102679307,1.5692978134909739,undefined,1493660666099
903d185fccf839df,0.9618127316502187,1.9595684795447916,-0.29835663833947523,2.3463217951815785,0.76820665115598,0.4732863693409691,-0.7967530988848569,-0.8218491351944345,1.501467070726719,-0.2809711424985306,0.29948945786473374,0.01446018375310007,-0.7086188168449198,-0.44381327018227223,0.008189750777874118,0.025410935915836895,-0.3365683809092505,-0.12868783769435999,0.09385310737076664,0.3478050525078075,0.016744683970321084,3.010836284014983,2.0780102679307,1.5692978134909739,undefined,1493660666160
903d185fccf839df,0.8398435614072325,1.9595684795447916,-0.312392876193079,2.301797054945116,0.74440554984539,0.4726900846810707,-0.8062256603579164,-0.847445817758783,1.4599089064714161,-0.3251209953065657,0.2775558037656925,-0.01090520300858491,-0.7086188168449198,-0.4419616072898572,0.009242388240904726,0.013287292377901647,-0.32721602970086827,-0.1312716785818559,0.09288055061608907,0.35408761841144015,0.01636622918394013,3.017352897090011,2.0760253018423374,1.560436278167449,undefined,1493660667132
903d185fccf839df,0.8342995082143695,1.9713087795072197,-0.32323905998904556,2.301797054945116,0.7238650143979689,0.4760581640981074,-0.8150959963447295,-0.8451207013238803,1.4193163812031375,-0.3846211899390047,0.25316178619806917,-0.008804216434578136,-0.6476924576648841,-0.4419616072898572,0.017663429047279255,0.005204868063398404,-0.3137394077715131,-0.13277891903312203,0.10239621350624308,0.35673615108205065,0.021039313309647558,3.0089697915724942,2.0770337058867336,1.5469228595082662,undefined,1493660668085
903d185fccf839df,0.8606338989021077,1.9595684795447916,-0.3308951897273749,2.219235264820031,0.7157084563843954,0.4608575488998467,-0.8146331505423071,-0.9607528120001704,1.4718190829057265,-0.3812597381787737,0.2668799782353622,-0.02625198468485599,-0.6128773952762924,-0.4215932507194189,0.021873964174934105,-0.00893939215243323,-0.30937258389085226,-0.13084737118383402,0.11324127015711262,0.35996982465269545,0.02701792953837855,3.006852402087514,2.0740969990629874,1.5326446786831602,undefined,1493660669463
903d185fccf839df,0.8606338989021077,1.9595684795447916,-0.3308951897273749,2.219235264820031,0.7157084563843954,0.4608575488998467,-0.8146331505423071,-0.9607528120001704,1.4718190829057265,-0.3812597381787737,0.2668799782353622,-0.02625198468485599,-0.6128773952762924,-0.4215932507194189,0.021873964174934105,-0.00893939215243323,-0.30937258389085226,-0.13084737118383402,0.11324127015711262,0.35996982465269545,0.02701792953837855,3.006852402087514,2.0740969990629874,1.5326446786831602,undefined,1493660669533
903d185fccf839df,0.8606338989021077,1.9595684795447916,-0.32579110323515537,2.2468675170996586,0.7151427435974225,0.4507579672670467,-0.8186094173075465,-1.039651726747746,1.506216811090272,-0.36689956099428633,0.2680137196201001,-0.030227454632174005,-0.5954698640819964,-0.4215932507194189,0.03661085920842745,0.005204896328119941,-0.30536083080221427,-0.13208229537256216,0.1205529376761667,0.3631573027927653,0.030169592114874386,3.009368048056597,2.0752151249358985,1.5367662773861965,undefined,1493660670285
903d185fccf839df,0.8606338989021077,1.9595684795447916,-0.32579110323515537,2.2468675170996586,0.7151427435974225,0.4507579672670467,-0.8186094173075465,-1.039651726747746,1.506216811090272,-0.36689956099428633,0.2680137196201001,-0.030227454632174005,-0.5954698640819964,-0.4215932507194189,0.03661085920842745,0.005204896328119941,-0.30536083080221427,-0.13208229537256216,0.1205529376761667,0.3631573027927653,0.030169592114874386,3.009368048056597,2.0752151249358985,1.5367662773861965,undefined,1493660670999
903d185fccf839df,0.8495457925163817,1.9595684795447916,-0.3283431464812651,2.2468675170996586,0.6789062323207388,0.44308545610577593,-0.826014951128356,-1.1166430921486898,1.436229726544101,-0.3825070567280678,0.24958021579809547,-0.061553127987192556,-0.5475991532976827,-0.4577007613015469,0.05555824519617289,-0.015001213921400854,-0.32309175897989534,-0.14072676354203223,0.12370150263184221,0.3530559227953984,0.02708092769048621,3.008053144351387,2.0696929622184856,1.5399610859258366,undefined,1493660672100
903d185fccf839df,0.8495457925163817,1.9595684795447916,-0.3283431464812651,2.2468675170996586,0.6789062323207388,0.44308545610577593,-0.826014951128356,-1.1166430921486898,1.436229726544101,-0.3825070567280678,0.24958021579809547,-0.061553127987192556,-0.5475991532976827,-0.4577007613015469,0.05555824519617289,-0.015001213921400854,-0.32309175897989534,-0.14072676354203223,0.12370150263184221,0.3530559227953984,0.02708092769048621,3.008053144351387,2.0696929622184856,1.5399610859258366,undefined,1493660672129
903d185fccf839df,0.8495457925163817,1.9595684795447916,-0.34046541543452397,2.2468675170996586,0.6834216530265499,0.4380240200324107,-0.8307407124044953,-1.1584989121731133,1.423208644402255,-0.3853954432879082,0.24756347055781533,-0.05658221073246184,-0.44315396613190733,-0.4577007613015469,0.05555824519617289,-0.019042390747750555,-0.32309175897989534,-0.1500171925756294,0.12939690593917585,0.33787305642002285,0.02485203797238867,2.9825815073404294,2.0198296522184926,1.5085381342502375,undefined,1493660673217
903d185fccf839df,0.8495457925163817,1.9595684795447916,-0.3570536965342375,2.2468675170996586,0.6747096668887727,0.44070497408449355,-0.8361581130390954,-1.1507608949687909,1.4275767608385845,-0.3806077016613041,0.2563566130590794,-0.05658221073246184,-0.44315396613190733,-0.4604782362140077,0.05450562245760986,-0.02308362410354333,-0.3365683809092505,-0.1649692728471019,0.12820045143219058,0.3120036678548646,0.014316134841627888,2.9633148785756034,1.9057586539030456,1.4824996993561201,undefined,1493660674096
903d185fccf839df,0.8606338989021077,1.8597756960402172,-0.3659858478956217,2.301797054945116,0.685540505580205,0.45765950702765223,-0.8374809054907114,-1.025959511360766,1.4492750468078333,-0.3792535600424793,0.2619224961956055,-0.08487703260625216,-0.3909313725490196,-0.46140406118482796,0.05450562245760986,-0.031166090815128878,-0.350404956065629,-0.18402509995712424,0.11982526870881793,0.2768182215044162,-0.0004734704320672642,2.8577197866018653,1.7311896701843652,1.3367597784698673,undefined,1493660675252
903d185fccf839df,0.8606338989021077,1.8597756960402172,-0.3659858478956217,2.301797054945116,0.685540505580205,0.45765950702765223,-0.8374809054907114,-1.025959511360766,1.4492750468078333,-0.3792535600424793,0.2619224961956055,-0.08487703260625216,-0.3909313725490196,-0.46140406118482796,0.05450562245760986,-0.031166090815128878,-0.350404956065629,-0.18402509995712424,0.11982526870881793,0.2768182215044162,-0.0004734704320672642,2.8577197866018653,1.7311896701843652,1.3367597784698673,undefined,1493660675297
903d185fccf839df,0.8606338989021077,1.8597756960402172,-0.36343380464951197,2.301797054945116,0.6811587985497934,0.46248336093183984,-0.8385696452376529,-0.9916191552181715,1.440393499604985,-0.3703497028484935,0.26206178574236494,-0.11197061513329033,0.6056497883244207,-0.46140406118482796,0.05450562245760986,-0.0412690894104462,-0.350404956065629,-0.2138595977265145,0.11160401591037107,0.2537051553068717,-0.01978572539918376,2.6118374789537513,1.4918548835869057,1.2011877145091598,undefined,1493660676132
903d185fccf839df,0.8606338989021077,1.8404043180141807,-0.3659858478956217,2.283006232598699,0.6832673664406786,0.47446263748133816,-0.8373651941096678,-0.9004336407023297,1.3609300188741866,-0.3798391386774134,0.2449989175338805,-0.11248686595994058,0.7797251002673797,-0.46047826211555676,0.05450562245760986,-0.04733091117941383,-0.350404956065629,-0.24912776135935355,0.10257812976935042,0.23248609734726594,-0.04149840449211061,2.386976978867668,1.286190197062562,1.103257672724873,undefined,1493660677122
903d185fccf839df,0.8606338989021077,1.8304249461341477,-0.3659858478956217,2.197525896381549,0.6846045070996909,0.491773542750466,-0.8377438861685186,-0.769293448392374,1.2524336307580466,-0.3786408944810845,0.2249952397682766,-0.10847049169763864,1.4150999888591802,-0.46140412593870067,0.03661085920842745,-0.05541337789099937,-0.37955410154241964,-0.2840792770885565,0.0802163215468474,0.22404774940424863,-0.06709493538044384,2.0015556592433765,1.2007577589393368,1.031985204055296,undefined,1493660678110
903d185fccf839df,0.8606338989021077,1.8304249461341477,-0.3659858478956217,2.197525896381549,0.6846045070996909,0.491773542750466,-0.8377438861685186,-0.769293448392374,1.2524336307580466,-0.3786408944810845,0.2249952397682766,-0.10847049169763864,1.4150999888591802,-0.46140412593870067,0.03661085920842745,-0.05541337789099937,-0.37955410154241964,-0.2840792770885565,0.0802163215468474,0.22404774940424863,-0.06709493538044384,2.0015556592433765,1.2007577589393368,1.031985204055296,undefined,1493660678132
903d185fccf839df,0.8606338989021077,1.8321858742165427,-0.36343380464951197,2.205645699599562,0.6899530694796738,0.5149704367576188,-0.8380357946148637,-0.5952349933850437,1.2088689202366274,-0.38169984654672007,0.20470124169801682,-0.11142664911502688,1.5761196524064172,-0.46695912756672037,0.021873964174934105,-0.06955760984210947,-0.4007419034001315,-0.3166939380347984,0.05432112453508469,0.21842731701828855,-0.09298620116963628,1.5384959929253144,1.1517620877928036,0.979498101520272,undefined,1493660679171
903d185fccf839df,0.8606338989021077,1.8321858742165427,-0.36343380464951197,2.205645699599562,0.6637039700453479,0.5172181518086965,-0.8377885929583406,-0.5887009229382592,1.2133481796778722,-0.3683142094384915,0.20316418680829507,-0.11142664911502688,1.5761196524064172,-0.47714330585193954,0.01661079158424865,-0.08572248673583749,-0.4050345742504016,-0.33995484005666243,0.032770946985982326,0.2082335450827868,-0.11312614011130362,1.2836753458102077,1.0713262354946496,0.8960010940172147,undefined,1493660680117
903d185fccf839df,0.8509318058145975,1.8198586761679627,-0.36151977221492965,2.1611209593630996,0.6371360138007767,0.5061006931636561,-0.8430324259751092,-0.6839003780260191,1.1689674425338636,-0.376041430097676,0.1937365243866218,-0.14098838410611375,2.189735127005348,-0.48454995742159973,0.01661079158424865,-0.09784613027377274,-0.4050345742504016,-0.36987799884928946,0.025620206135442906,0.18963222309137115,-0.1311603641718933,1.1092845619779585,0.8966343521637777,0.8124009179994288,undefined,1493660681113
903d185fccf839df,0.8509318058145975,1.8198586761679627,-0.36151977221492965,2.1611209593630996,0.6371360138007767,0.5061006931636561,-0.8430324259751092,-0.6839003780260191,1.1689674425338636,-0.376041430097676,0.1937365243866218,-0.14098838410611375,2.189735127005348,-0.48454995742159973,0.01661079158424865,-0.09784613027377274,-0.4050345742504016,-0.36987799884928946,0.025620206135442906,0.18963222309137115,-0.1311603641718933,1.1092845619779585,0.8966343521637777,0.8124009179994288,undefined,1493660681139
903d185fccf839df,0.8495457925163817,1.808118376205535,-0.3666238587071492,2.078559169238015,0.5948103686289946,0.5042862171135837,-0.8490704607508903,-0.7253380075634775,1.0638855791680166,-0.4494054203938956,0.17374978915480305,-0.143797601670154,2.6902016488413545,-0.49473413570681884,0.021873964174934105,-0.1079491571338116,-0.4050345742504016,-0.3898394379405355,0.028258003915471997,0.17628177154909389,-0.14125353065568538,1.092280173043552,0.8389170787652547,0.8008873483761181,undefined,1493660682179
903d185fccf839df,0.870335991989618,1.722413718831935,-0.3666238587071492,2.1063217543259323,0.5815521057485656,0.48411500561921456,-0.8504905559306615,-0.8802244232788414,1.0858203310370278,-0.442386458155751,0.1800687679110569,-0.16097252535752313,3.8042836452762923,-0.49473413570681884,0.01871609595924503,-0.13017585579650726,-0.40889842783095803,-0.4126507017419746,0.027523338791772104,0.1548163378161565,-0.15633663594141345,1.0730238489189443,0.688439992887498,0.7888551654478282,undefined,1493660683096
903d185fccf839df,0.870335991989618,1.722413718831935,-0.3532256157815135,2.1063217543259323,0.582385246910604,0.4804278193479578,-0.8570124747851747,-0.913939013862466,1.0995950872208495,-0.4168364117178401,0.17663768097568452,-0.17042160585809918,3.9609514260249554,-0.49473413570681884,0.009242388240904726,-0.13017585579650726,-0.4144299671736071,-0.412226394521126,0.020974323909075193,0.15566325278688303,-0.15876029612980583,1.0819496172588488,0.6881709722023669,0.7806073553025106,undefined,1493660684147
903d185fccf839df,0.870335991989618,1.722413718831935,-0.3532256157815135,2.1063217543259323,0.582385246910604,0.4804278193479578,-0.8570124747851747,-0.913939013862466,1.0995950872208495,-0.4168364117178401,0.17663768097568452,-0.17042160585809918,3.9609514260249554,-0.49473413570681884,0.009242388240904726,-0.13017585579650726,-0.4144299671736071,-0.412226394521126,0.020974323909075193,0.15566325278688303,-0.15876029612980583,1.0819496172588488,0.6881709722023669,0.7806073553025106,undefined,1493660684174
903d185fccf839df,0.8245975531484981,1.6701695009111008,-0.3532256157815135,1.9004610884052155,0.5651464190502282,0.4761490059629104,-0.8581143633530239,-0.9539530839399597,1.0555144209723295,-0.41565401269340935,0.17633890469580002,-0.17246308371438931,3.995766488413547,-0.5058441389628583,0.003979230374686852,-0.1321964442096821,-0.41725890765961293,-0.4392743958765438,0.011269747082431674,0.1252975183129568,-0.17919138042012023,0.99844956672822,0.41833072099227914,0.7066454881192968,undefined,1493660685171
903d185fccf839df,0.8245975531484981,1.620860474892843,-0.38066008067719365,1.8971507935355136,0.5691269840301745,0.462681343985276,-0.8601024966047034,-1.0561416767357559,1.116498975555918,-0.4054844299920488,0.17265657988862881,-0.18570240496741305,4.378732174688057,-0.5058441389628583,-0.00865236028381011,-0.1261346083083537,-0.4217555782783817,-0.4448410536956347,0.0022998358688527012,0.10407846089184336,-0.1871866014535224,0.9678963730742756,0.3722786868940022,0.6623456397458429,undefined,1493660686089
903d185fccf839df,0.7719287717730217,1.61088110301281,-0.38066008067719365,1.8971507935355136,0.5370870367770904,0.4718888274012826,-0.8604022944778071,-1.0032412228382093,1.1366578863829337,-0.37871094628607693,0.16318184348629083,-0.18891377980173762,4.826976102941177,-0.508621613875319,0.0029265929116562444,-0.1261346083083537,-0.4217555782783817,-0.44883080793555835,0.010668021750763364,0.10943712006869873,-0.18547095605040692,0.9768566851254207,0.3702504362287521,0.6772277426295408,undefined,1493660687415
903d185fccf839df,0.7719287717730217,1.61088110301281,-0.38066008067719365,1.8971507935355136,0.5370870367770904,0.4718888274012826,-0.8604022944778071,-1.0032412228382093,1.1366578863829337,-0.37871094628607693,0.16318184348629083,-0.18891377980173762,4.826976102941177,-0.508621613875319,0.0029265929116562444,-0.1261346083083537,-0.4217555782783817,-0.44883080793555835,0.010668021750763364,0.10943712006869873,-0.18547095605040692,0.9768566851254207,0.3702504362287521,0.6772277426295408,undefined,1493660687459
903d185fccf839df,0.7663847185801587,1.6003148330466253,-0.38066008067719365,1.7752655202999146,0.5262767694597299,0.4822422953980307,-0.8592504395132083,-0.9436934813450975,1.179052628671244,-0.3755974162891653,0.1562439013425331,-0.1982256196203983,5.253460617201426,-0.508621613875319,0.0029265929116562444,-0.1342170184904962,-0.43446503365282346,-0.44723490619529555,0.009135720028078775,0.08684760115095116,-0.18945136926206618,0.9806700145785332,0.3843098807948421,0.6445699727852655,undefined,1493660688127
903d185fccf839df,0.7663847185801587,1.61088110301281,-0.4029905226148916,1.8971507935355136,0.5284676218226357,0.47260390407356767,-0.8624219853710503,-1.0147706162538974,1.1787553805555995,-0.3730137921537281,0.15985061358289074,-0.20874280360413175,5.414480280748663,-0.508621613875319,0.0029265929116562444,-0.13219643007732132,-0.4486596805299968,-0.44847616326679773,0.007771341913243736,0.06234867472861774,-0.19439919972638323,0.9796306662454584,0.36239337697741986,0.649663971808565,undefined,1493660689112
903d185fccf839df,0.7580686387908642,1.5815303531067408,-0.40809460910711115,1.8703456142710344,0.5137899341312576,0.45807178034463836,-0.8713396580820894,-1.1387146121246166,1.1472139878299372,-0.41561074588325647,0.14307777069587288,-0.21164279400040534,5.888835505793226,-0.508621613875319,0.0029265929116562444,-0.13219643007732132,-0.4486596805299968,-0.4473868968878463,0.008750895411510189,0.06259505007115511,-0.19362396752818506,0.9789595646991229,0.36242809480067767,0.6497577094321354,undefined,1493660690130
903d185fccf839df,0.7580686387908642,1.5815303531067408,-0.40809460910711115,1.8703456142710344,0.5137899341312576,0.45807178034463836,-0.8713396580820894,-1.1387146121246166,1.1472139878299372,-0.41561074588325647,0.14307777069587288,-0.21164279400040534,5.888835505793226,-0.508621613875319,0.0029265929116562444,-0.13219643007732132,-0.4486596805299968,-0.4473868968878463,0.008750895411510189,0.06259505007115511,-0.19362396752818506,0.9789595646991229,0.36242809480067767,0.6497577094321354,undefined,1493660690172
903d185fccf839df,0.7580686387908642,1.4594312334974922,-0.4068185716004969,1.8669251338117907,0.5020128101839925,0.4481725130897731,-0.8732094500796994,-1.2163648860958889,1.1196985477241517,-0.40935987094456144,0.14237295365546787,-0.2068694253610596,5.492814171122995,-0.510473276767734,0.0029265929116562444,-0.13421703262285695,-0.4673942314393863,-0.44672193781833014,0.010122270269934333,0.046211104775959626,-0.1957361215647751,0.9771088489019248,0.3745399576506568,0.6562716386583296,undefined,1493660691122
903d185fccf839df,0.7580686387908642,1.37783603184665,-0.40043846348522244,1.8245068799207829,0.5021465251397259,0.4403439407331749,-0.8739563150162812,-1.2753495965273414,1.129368047918287,-0.40851802746344484,0.1462496399155659,-0.21011187369981157,5.523277350713013,-0.5123249267093746,0.0029265929116562444,-0.14027885439182458,-0.48772942789888996,-0.4626556242213817,0.00937361165905645,0.026593486112053786,-0.20678608859367978,0.9849141899611022,0.27969524825973285,0.6626914463717193,undefined,1493660692283
903d185fccf839df,0.6042211626889157,1.37783603184665,-0.40043846348522244,1.8220875578598228,0.48418769816257295,0.4400062018389282,-0.8740036514786268,-1.2852608113389066,1.1004326904884152,-0.4075203084796264,0.14617636834425515,-0.2051608791100718,5.022810828877005,-0.5188057533082145,-0.009704997746840718,-0.1382582377139282,-0.503368227411778,-0.48402297551342893,-0.0058794357829493405,0.007006663288980323,-0.22416734424915694,0.8119326998951462,0.17182090938776517,0.5694134577505802,undefined,1493660693410
903d185fccf839df,0.6042211626889157,1.37783603184665,-0.40043846348522244,1.8220875578598228,0.48418769816257295,0.4400062018389282,-0.8740036514786268,-1.2852608113389066,1.1004326904884152,-0.4075203084796264,0.14617636834425515,-0.2051608791100718,5.022810828877005,-0.5188057533082145,-0.009704997746840718,-0.1382582377139282,-0.503368227411778,-0.48402297551342893,-0.0058794357829493405,0.007006663288980323,-0.22416734424915694,0.8119326998951462,0.17182090938776517,0.5694134577505802,undefined,1493660693485
903d185fccf839df,0.4171090913865112,1.4594312334974922,-0.3985244310506401,1.8245068799207829,0.46977743730986027,0.4471872472504672,-0.8796971814114396,-1.2427799794227958,1.0865564439924786,-0.4189517758667374,0.1359221211734642,-0.21218174868015133,5.162071078431373,-0.5188057533082145,-0.03181031084814557,-0.14229947106972096,-0.5175401084054034,-0.5111786365846992,-0.03955508604914864,-0.024791126840310023,-0.2526117531285674,0.28721356408811194,-0.10766693787944281,0.16144517104721576,undefined,1493660694241
903d185fccf839df,0.4171090913865112,1.4594312334974922,-0.3985244310506401,1.8245068799207829,0.46977743730986027,0.4471872472504672,-0.8796971814114396,-1.2427799794227958,1.0865564439924786,-0.4189517758667374,0.1359221211734642,-0.21218174868015133,5.162071078431373,-0.5188057533082145,-0.03181031084814557,-0.14229947106972096,-0.5175401084054034,-0.5111786365846992,-0.03955508604914864,-0.024791126840310023,-0.2526117531285674,0.28721356408811194,-0.10766693787944281,0.16144517104721576,undefined,1493660695024
903d185fccf839df,0.7469805324051382,1.5715509812267079,-0.3985244310506401,1.851554791924617,0.502619667767642,0.47755586786575094,-0.8807096570543456,-1.0118253753477042,1.1139268847580097,-0.4075861788755735,0.14902247511947875,-0.1942406245693603,5.414480280748663,-0.5271383205041168,-0.07075774973560223,-0.15442317113709927,-0.53431692152268,-0.5424823773093909,-0.07072587842522375,-0.11799791509387364,-0.29111007788853005,-0.01648519559888041,-0.6089035293425457,-0.3555839256123693,undefined,1493660696095
903d185fccf839df,0.7469805324051382,1.5715509812267079,-0.3985244310506401,1.851554791924617,0.502619667767642,0.47755586786575094,-0.8807096570543456,-1.0118253753477042,1.1139268847580097,-0.4075861788755735,0.14902247511947875,-0.1942406245693603,5.414480280748663,-0.5271383205041168,-0.07075774973560223,-0.15442317113709927,-0.53431692152268,-0.5424823773093909,-0.07072587842522375,-0.11799791509387364,-0.29111007788853005,-0.01648519559888041,-0.6089035293425457,-0.3555839256123693,undefined,1493660696125
903d185fccf839df,0.7345064127211963,1.5609847112605229,-0.4010764742967499,1.7296695186890179,0.5313373333709089,0.49061824122191366,-0.8780377740837418,-0.9011467535985682,1.0490156408760194,-0.4148450490664068,0.13644387583222845,-0.1958819976663158,5.009755180481283,-0.5289899704457572,-0.07075774973560223,-0.15038190951658498,-0.53431692152268,-0.5491066360748162,-0.06872479096715667,-0.10845087859408054,-0.2913793893481587,-0.02994669771647202,-0.6056285192194599,-0.33930205413736564,undefined,1493660697126
903d185fccf839df,0.8038073536752619,1.5093273914258407,-0.40043846348522244,1.5507712337419095,0.544276739953226,0.5006106779548882,-0.8761679819879263,-0.8213399520893132,1.0518451473218815,-0.40818495934118654,0.13652285826184365,-0.16934778805396547,3.8956731840463457,-0.5299157954165775,-0.07812616780341373,-0.1503818953842242,-0.5441600691537078,-0.5550026064557583,-0.07006118191188974,-0.1005206791219313,-0.2938008939882545,-0.03698916724557247,-0.5990901233533518,-0.3340989473407236,undefined,1493660698090
903d185fccf839df,0.7941052605877515,1.3872282718165923,-0.3953343769930029,1.5507712337419095,0.5625029958175778,0.4938535545965438,-0.8742903004817201,-0.8646859639479476,1.0755581538586487,-0.4058848491457865,0.135604690396232,-0.16808249385992144,3.7738204656862746,-0.5317674453582181,-0.08549458587122524,-0.15442312874001698,-0.5497533722275153,-0.5599866331243291,-0.08250850777027047,-0.11276244356136225,-0.3023507536036329,-0.05390887270506541,-0.616013661873966,-0.3891616474084896,undefined,1493660699137
903d185fccf839df,0.7941052605877515,1.3872282718165923,-0.3953343769930029,1.5507712337419095,0.5625029958175778,0.4938535545965438,-0.8742903004817201,-0.8646859639479476,1.0755581538586487,-0.4058848491457865,0.135604690396232,-0.16808249385992144,3.7738204656862746,-0.5317674453582181,-0.08549458587122524,-0.15442312874001698,-0.5497533722275153,-0.5599866331243291,-0.08250850777027047,-0.11276244356136225,-0.3023507536036329,-0.05390887270506541,-0.616013661873966,-0.3891616474084896,undefined,1493660699185
903d185fccf839df,0.7248043196336861,1.2416483184585494,-0.3953343769930029,1.5387758309234782,0.5515487288817157,0.49790876030633147,-0.8719234751384548,-0.8425716774570907,1.1078640862229208,-0.399331724189437,0.12842012231721536,-0.15599421326656407,3.7477091688948305,-0.5317674453582181,-0.07917880526644434,-0.15442312874001698,-0.5441600691537078,-0.5592900093751826,-0.0712086581371491,-0.11517999950989159,-0.2964812568843981,-0.059112579743558095,-0.6153478182732653,-0.39375084280340883,undefined,1493660700215
903d185fccf839df,0.7248043196336861,1.2416483184585494,-0.3953343769930029,1.5387758309234782,0.5458710234923189,0.5043025217722528,-0.870164134919053,-0.8068394663899755,1.138220153825931,-0.39687034825205114,0.119775541443758,-0.15599421326656407,3.7477091688948305,-0.5317674453582181,-0.07917880526644434,-0.15442312874001698,-0.5441600691537078,-0.557744771184339,-0.06873178741712667,-0.11485663203435872,-0.2948220712315625,-0.056131597665363214,-0.6162018285152749,-0.39468211888809973,undefined,1493660701066
903d185fccf839df,0.7345064127211963,1.3872282718165923,-0.40043846348522244,1.5507712337419095,0.5392058911232117,0.4962736341099216,-0.8754290066908811,-0.8767086524288267,1.1745157878415775,-0.3868570791712178,0.12617506411794036,-0.14725173489748708,2.7685355392156863,-0.5317674583089925,-0.07286302466166344,-0.16654677227795223,-0.5358763184415853,-0.5539766698790006,-0.052205319453538415,-0.11296262315022931,-0.2848792456683139,-0.04451276458012908,-0.6193172421826173,-0.40917832197431653,undefined,1493660702013
903d185fccf839df,0.7345064127211963,1.3872282718165923,-0.40043846348522244,1.5507712337419095,0.5392058911232117,0.4962736341099216,-0.8754290066908811,-0.8767086524288267,1.1745157878415775,-0.3868570791712178,0.12617506411794036,-0.14725173489748708,2.7685355392156863,-0.5317674583089925,-0.07286302466166344,-0.16654677227795223,-0.5358763184415853,-0.5539766698790006,-0.052205319453538415,-0.11296262315022931,-0.2848792456683139,-0.04451276458012908,-0.6193172421826173,-0.40917832197431653,undefined,1493660702034
903d185fccf839df,0.7261903329319018,1.357290390000432,-0.4010764742967499,1.6838307843387665,0.5132036476656129,0.4777771453762601,-0.8803493736852106,-1.027005031707871,1.0933709254209312,-0.4180219677738891,0.11627506020217024,-0.14227343372984697,2.1636238302139037,-0.5336191082506331,-0.05602088415104405,-0.17462919659245546,-0.5358763184415853,-0.5574661219504403,-0.03815572247912325,-0.11054506720169997,-0.27793708977884973,-0.04937531702481732,-0.6148486192501134,-0.41708994643854397,undefined,1493660703129
903d185fccf839df,0.3852307855275489,1.357290390000432,-0.4010764742967499,1.6838307843387665,0.48710883404895833,0.47953571973946757,-0.8787609706909455,-1.023101692175367,1.0306976048077183,-0.4063729231014628,0.12117941925329634,-0.1355534421750793,2.006956049465241,-0.5419516365942117,-0.05602088415104405,-0.17462916832773392,-0.5358763184415853,-0.5612025587533216,-0.0392192378791878,-0.1022761016066373,-0.2790229277931064,-0.04601592438358168,-0.6119394035913607,-0.42432159965530014,undefined,1493660704118
903d185fccf839df,0.3852307855275489,1.30563307016575,-0.44318525139179865,1.5049324993916582,0.48373512562839477,0.49057398525591284,-0.8824611078306216,-0.9468945338212514,1.0116560576617777,-0.3982779104232318,0.12523531601135954,-0.10921253412233499,1.4934338792335118,-0.5419516365942117,-0.0602314192786989,-0.16856734655876632,-0.5294074775192623,-0.5609365751963844,-0.03511210970494938,-0.09559317657911975,-0.2769517946331666,-0.043461134624309186,-0.609036978847215,-0.4265161583919052,undefined,1493660705383
903d185fccf839df,0.3852307855275489,1.30563307016575,-0.44318525139179865,1.5049324993916582,0.48373512562839477,0.49057398525591284,-0.8824611078306216,-0.9468945338212514,1.0116560576617777,-0.3982779104232318,0.12523531601135954,-0.10921253412233499,1.4934338792335118,-0.5419516365942117,-0.0602314192786989,-0.16856734655876632,-0.5294074775192623,-0.5609365751963844,-0.03511210970494938,-0.09559317657911975,-0.2769517946331666,-0.043461134624309186,-0.609036978847215,-0.4265161583919052,undefined,1493660705408
903d185fccf839df,0.3852307855275489,1.1600531168077073,-0.3985244310506401,1.492937096573227,0.48022770276423177,0.5018684654454615,-0.8804361573304511,-0.8619548247948566,0.9743645856099753,-0.4072841338359334,0.121064877482303,-0.09932713614593114,0.8537071078431373,-0.5447291374082216,-0.06338931694332314,-0.16856734655876632,-0.531342077199589,-0.5582767388075865,-0.0303332880291054,-0.0947000667163104,-0.27417888427909665,-0.04739747708911575,-0.6086680212189394,-0.42567066488080374,undefined,1493660706101
903d185fccf839df,0.3727566658436071,1.1600531168077073,-0.3978864202391127,1.492937096573227,0.4468711887228569,0.49840721469472016,-0.8776696012060107,-0.8964294371746436,0.971288309041906,-0.41468908006619076,0.12011226288350063,-0.10132643419131805,0.5838903743315509,-0.5363966090646429,-0.06338931694332314,-0.16856734655876632,-0.5210341050046355,-0.5555979037040264,-0.02845814273862416,-0.09175896348798439,-0.2719441974206943,-0.04885049986331181,-0.6066685414008989,-0.42814731604755674,undefined,1493660707551
903d185fccf839df,0.3727566658436071,1.1600531168077073,-0.3985244310506401,1.492937096573227,0.4331294985517423,0.5057326718695293,-0.8809410799882917,-0.8542797531729887,0.9947974806123325,-0.44897198989336023,0.10481246986847544,-0.10132643419131805,0.5838903743315509,-0.5336191082506331,-0.04128400384201829,-0.16250552478979868,-0.514651404973351,-0.5577131068369086,-0.020040979357971556,-0.08398274836259968,-0.26761458248863923,-0.05343748165383071,-0.6099960906086446,-0.4201485417484127,undefined,1493660708069
903d185fccf839df,0.3727566658436071,1.1600531168077073,-0.3985244310506401,1.492937096573227,0.4331294985517423,0.5057326718695293,-0.8809410799882917,-0.8542797531729887,0.9947974806123325,-0.44897198989336023,0.10481246986847544,-0.10238608468588535,0.39240753119429594,-0.5336191082506331,-0.04128400384201829,-0.16250552478979868,-0.514651404973351,-0.5577131068369086,-0.020040979357971556,-0.08398274836259968,-0.26761458248863923,-0.05343748165383071,-0.6099960906086446,-0.4201485417484127,undefined,1493660708099
903d185fccf839df,0.4060209850007852,1.1600531168077073,-0.3985244310506401,1.492937096573227,0.464212873453591,0.509033203878836,-0.8810962389164078,-0.8174804445468535,1.1094196390871742,-0.4012962399380717,0.11074254192740927,-0.08276257383886063,0.13129456327985742,-0.5363966090646429,-0.04128400384201829,-0.16250552478979868,-0.5173554928914014,-0.5563198591614423,-0.01779500313384571,-0.0822889192827341,-0.26603304592562543,-0.055884836749665615,-0.6102537621912584,-0.4206983173215716,undefined,1493660709128
903d185fccf839df,0.7469805324051382,1.1600531168077073,-0.3978864202391127,1.492937096573227,0.49032825742005054,0.5005757366172032,-0.8784743222443484,-0.8661236443139667,1.1511661026192657,-0.386751196625447,0.12152525620228936,-0.07281036009007288,-0.5519510360962567,-0.5447291374082216,-0.01917869074071344,-0.16250552478979868,-0.5173554928914014,-0.5628364580781354,-0.014443530460883812,-0.0821811299088264,-0.26712950925378104,-0.05906757279005777,-0.6121058760148406,-0.41937873852309576,undefined,1493660710128
903d185fccf839df,0.7580686387908642,1.107808898886873,-0.390230274617224,1.4814544307553446,0.4848768381697093,0.5105844775449477,-0.8819062191033821,-0.7963991065486747,1.1310427628711177,-0.37823640599707076,0.1224221248150184,-0.06946942358489246,-0.7260263480392157,-0.55583916656581,-0.01917869074071344,-0.1705879632366627,-0.5266157707706068,-0.5701890054938041,-0.0137158620807728,-0.07548280604545539,-0.2691259304965867,-0.0600332590323814,-0.6086523946948671,-0.4182115253808982,undefined,1493660711108
903d185fccf839df,0.7580686387908642,1.107808898886873,-0.390230274617224,1.4814544307553446,0.4848768381697093,0.5105844775449477,-0.8819062191033821,-0.7963991065486747,1.1310427628711177,-0.37823640599707076,0.1224221248150184,-0.06946942358489246,-0.7260263480392157,-0.55583916656581,-0.01917869074071344,-0.1705879632366627,-0.5266157707706068,-0.5701890054938041,-0.0137158620807728,-0.07548280604545539,-0.2691259304965867,-0.0600332590323814,-0.6086523946948671,-0.4182115253808982,undefined,1493660711137
903d185fccf839df,0.7580686387908642,1.0291486553146685,-0.3985244310506401,1.4814544307553446,0.48426998204243876,0.5163563322805919,-0.8790870671060789,-0.7504428217763474,1.097976957046898,-0.3959836183363799,0.11111409849644828,-0.06665072356859082,-0.6607481060606061,-0.55583916656581,-0.006547100082216477,-0.15644370302083105,-0.5173554928914014,-0.5716202508202615,-0.00586544060746231,-0.07720743182774108,-0.2668010403112685,-0.04875844899188352,-0.6087841559360733,-0.4284302449221251,undefined,1493660712123
903d185fccf839df,0.7552966121944327,1.067304747104528,-0.3985244310506401,1.5078504803749615,0.5218127765369287,0.5406386530272099,-0.8789871344762551,-0.5582088294821905,1.143435060685762,-0.4263220468143285,0.08613012500199894,-0.048171303355477056,-0.7390819964349377,-0.55583916656581,-0.006547100082216477,-0.15644370302083105,-0.5092485970076924,-0.5705816481236091,0.0022018823639318712,-0.07731522077085504,-0.263233741407512,-0.04196961163017452,-0.6088498861344621,-0.42855595100136196,undefined,1493660713327
903d185fccf839df,0.7552966121944327,1.067304747104528,-0.4010764742967499,1.5078504803749615,0.5139647896465638,0.5373218168231333,-0.8769727031244691,-0.5824292917228253,1.1774077135954135,-0.4331658685738659,0.08045450697660156,-0.04520441700565937,-0.7564895276292335,-0.55583916656581,-0.004441825156155261,-0.15240249792975982,-0.4977752684724101,-0.569061741641035,0.013543713021356724,-0.08253529376368399,-0.2578063638759623,-0.04174096130734014,-0.6093615485341629,-0.43822676294254226,undefined,1493660714236
903d185fccf839df,0.7552966121944327,1.067304747104528,-0.4010764742967499,1.5078504803749615,0.5139647896465638,0.5373218168231333,-0.8769727031244691,-0.5824292917228253,1.1774077135954135,-0.4331658685738659,0.08045450697660156,-0.04520441700565937,-0.7564895276292335,-0.55583916656581,-0.004441825156155261,-0.15240249792975982,-0.4977752684724101,-0.569061741641035,0.013543713021356724,-0.08253529376368399,-0.2578063638759623,-0.04174096130734014,-0.6093615485341629,-0.43822676294254226,undefined,1493660714290
903d185fccf839df,0.7552966121944327,1.1107438569655106,-0.3985244310506401,1.527293165105596,0.5107453655072717,0.5338302873837035,-0.8779089140741088,-0.6098400433390766,1.1822772633764795,-0.43127276496452815,0.08383269225705049,-0.04078291898176754,-0.7651932932263815,-0.55583916656581,-0.006547100082216477,-0.15240249792975982,-0.4968050902640933,-0.5683904496001582,0.007386519841372826,-0.08216573118067157,-0.26063520793967254,-0.03927609799228536,-0.6098324139520886,-0.4341157275855393,undefined,1493660715333
903d185fccf839df,0.8190532239123572,1.1107438569655106,-0.3985244310506401,1.527293165105596,0.49724024613798157,0.5354724008270726,-0.8789950239521163,-0.601921497369657,1.1665667940239643,-0.42821222122808167,0.08193580079152263,-0.04078291898176754,-0.7651932932263815,-0.55583916656581,-0.006547100082216477,-0.15644370302083105,-0.4968050902640933,-0.5691820675653688,0.0061480844813616075,-0.08048730066741325,-0.26144572441702757,-0.03894648950322996,-0.6094738201089636,-0.43218036634588874,undefined,1493660716054
903d185fccf839df,0.8107371441230627,1.1107438569655106,-0.4348910949583825,1.527293165105596,0.46967457825093195,0.5321019926369825,-0.8841415545026102,-0.6403401055589633,1.0864139258871648,-0.4474412987675731,0.06428674558793539,-0.007821600458742202,-0.7651932932263815,-0.55583916656581,-0.006547100082216477,-0.15644370302083105,-0.4977752684724101,-0.5680548034468398,0.007568437119912241,-0.0804719021546554,-0.2606084754416742,-0.041110933002694076,-0.6099769546336018,-0.4329747599128942,undefined,1493660717148
903d185fccf839df,0.8107371441230627,1.1107438569655106,-0.4348910949583825,1.527293165105596,0.46967457825093195,0.5321019926369825,-0.8841415545026102,-0.6403401055589633,1.0864139258871648,-0.4474412987675731,0.06428674558793539,-0.007821600458742202,-0.7651932932263815,-0.55583916656581,-0.006547100082216477,-0.15644370302083105,-0.4977752684724101,-0.5680548034468398,0.007568437119912241,-0.0804719021546554,-0.2606084754416742,-0.041110933002694076,-0.6099769546336018,-0.4329747599128942,undefined,1493660717194
903d185fccf839df,0.4697775967187098,1.1107438569655106,-0.4183027979751096,1.527293165105596,0.44344605275134474,0.529381442020602,-0.8851224721111318,-0.6702056052879134,0.9979850415470828,-0.43529002455384513,0.062294384485279033,-0.019971472243090083,-0.843527183600713,-0.542877487466581,-0.006547100082216477,-0.1705879632366627,-0.5045514844320232,-0.5642803689929674,0.008163166001610545,-0.07786956480692148,-0.25843216182182743,-0.04542043344455718,-0.6130834422984177,-0.43586058996779237,undefined,1493660718128
903d185fccf839df,0.4697775967187098,1.0291486553146685,-0.41319871148289006,1.4814544307553446,0.44152262722710434,0.5257874270830504,-0.8859166735427942,-0.6978443320452287,1.0014236387862154,-0.432693822166064,0.06284393419514647,-0.01643430192508547,-0.8957497771836007,-0.5400999866525712,-0.014968170337526173,-0.1806910183614231,-0.51626930431743,-0.565572289525302,0.010786970098715657,-0.07586776687197949,-0.25715535105089515,-0.046411863084484875,-0.613021633132561,-0.44018555783951246,undefined,1493660719082
903d185fccf839df,0.4697775967187098,1.1107438569655106,-0.41319871148289006,1.527293165105596,0.4416666268456065,0.5368350076917106,-0.8853801931124494,-0.6170410500202624,1.048875327365161,-0.4303195554278307,0.05943788378822477,-0.012680106394633545,-0.8783422459893049,-0.5400999866525712,-0.014968170337526173,-0.19079404522146196,-0.51626930431743,-0.5653379705594086,0.011024861729693332,-0.07191036632497232,-0.2565228898230283,-0.04694441595364492,-0.6148038089670502,-0.4449022300628563,undefined,1493660720111
903d185fccf839df,0.4697775967187098,1.1107438569655106,-0.41319871148289006,1.527293165105596,0.4416666268456065,0.5368350076917106,-0.8853801931124494,-0.6170410500202624,1.048875327365161,-0.4303195554278307,0.05943788378822477,-0.012680106394633545,-0.8783422459893049,-0.5400999866525712,-0.014968170337526173,-0.19079404522146196,-0.51626930431743,-0.5653379705594086,0.011024861729693332,-0.07191036632497232,-0.2565228898230283,-0.04694441595364492,-0.6148038089670502,-0.4449022300628563,undefined,1493660720152
903d185fccf839df,0.4697775967187098,1.1183749350291194,-0.41319871148289006,1.5728891667164926,0.4441351958312808,0.5488655290778155,-0.8843834968140862,-0.5292162343902514,1.1273577239822798,-0.4237135245803213,0.062338270629977904,-0.009018983330704914,-0.8391753008021391,-0.542877487466581,-0.014968170337526173,-0.19079404522146196,-0.5243371564433758,-0.5626971331511328,0.009779429369176466,-0.07003175616899773,-0.2552273400378803,-0.052173555015049486,-0.6163550473873184,-0.4470549635604844,undefined,1493660721559
903d185fccf839df,0.8107371441230627,1.1183749350291194,-0.41319871148289006,1.5728891667164926,0.45893631586415645,0.5478360054169124,-0.8838838336322328,-0.5285406264937709,1.1278838649584946,-0.4188572310497146,0.062251925788043935,-0.009018983330704914,-0.8391753008021391,-0.542877487466581,-0.022336603129805264,-0.19079404522146196,-0.5243371564433758,-0.5632164345437523,0.011647577867132159,-0.0685227083806386,-0.25432779659271604,-0.05344398555510889,-0.6174737381451473,-0.4484962481989548,undefined,1493660722071
903d185fccf839df,0.8107371441230627,1.1183749350291194,-0.41319871148289006,1.5728891667164926,0.4729660052722757,0.5436503615099743,-0.885177698376689,-0.5556435001929583,1.1358033354377097,-0.4217285375966113,0.06247462170442171,-0.0032941804025937763,-0.8391753008021391,-0.542877487466581,-0.017073415814652222,-0.18069099009670156,-0.5242154952266973,-0.5624374824492864,0.024563690537498226,-0.06467309699214238,-0.24706260520735762,-0.06560352851146599,-0.6192242321026409,-0.43098136788042096,undefined,1493660723134
903d185fccf839df,0.8107371441230627,1.1183749350291194,-0.41319871148289006,1.5728891667164926,0.4729660052722757,0.5436503615099743,-0.885177698376689,-0.5556435001929583,1.1358033354377097,-0.4217285375966113,0.06247462170442171,-0.0032941804025937763,-0.8391753008021391,-0.542877487466581,-0.017073415814652222,-0.18069099009670156,-0.5242154952266973,-0.5624374824492864,0.024563690537498226,-0.06467309699214238,-0.24706260520735762,-0.06560352851146599,-0.6192242321026409,-0.43098136788042096,undefined,1493660723160
903d185fccf839df,0.7469805324051382,1.1183749350291194,-0.41319871148289006,1.5728891667164926,0.4940516841811312,0.5427093497810729,-0.8843545691069264,-0.556982543444592,1.1522451462590113,-0.4190919678730349,0.06302343907975345,-0.0008053728098932045,-0.8391753008021391,-0.542877487466581,-0.017073415814652222,-0.17260857991455908,-0.5242154952266973,-0.5617218599632311,0.024934521471142616,-0.05949921975298396,-0.24599863906547714,-0.06606993872175028,-0.6163567671345194,-0.4349867442675707,undefined,1493660724272
903d185fccf839df,0.7469805324051382,1.1183749350291194,-0.41319871148289006,1.5728891667164926,0.4940516841811312,0.5427093497810729,-0.8843545691069264,-0.556982543444592,1.1522451462590113,-0.4190919678730349,0.06302343907975345,-0.0008053728098932045,-0.8391753008021391,-0.542877487466581,-0.017073415814652222,-0.17260857991455908,-0.5242154952266973,-0.5617218599632311,0.024934521471142616,-0.05949921975298396,-0.24599863906547714,-0.06606993872175028,-0.6163567671345194,-0.4349867442675707,undefined,1493660725042
903d185fccf839df,0.7469805324051382,1.1964480466912333,-0.41319871148289006,1.5772435205649333,0.4956048249720797,0.5359988102339849,-0.8860639429295791,-0.6074637848798514,1.1744441046210097,-0.4189138694247272,0.06867666123104688,-0.017475834356565575,-0.8739903631907309,-0.55583916656581,0.01661085048211898,-0.16048496464134537,-0.4927170283427489,-0.5641030468302238,0.04638674343552312,-0.05877549299201858,-0.23593641028071977,-0.0630098632054209,-0.6121082578150355,-0.42846413148056167,undefined,1493660726110
903d185fccf839df,0.7469805324051382,1.1964480466912333,-0.41319871148289006,1.5772435205649333,0.4956048249720797,0.5359988102339849,-0.8860639429295791,-0.6074637848798514,1.1744441046210097,-0.4189138694247272,0.06867666123104688,-0.017475834356565575,-0.8739903631907309,-0.55583916656581,0.01661085048211898,-0.16048496464134537,-0.4927170283427489,-0.5641030468302238,0.04638674343552312,-0.05877549299201858,-0.23593641028071977,-0.0630098632054209,-0.6121082578150355,-0.42846413148056167,undefined,1493660726137
903d185fccf839df,0.7663847185801587,1.197035178601324,-0.41319871148289006,1.584371832534375,0.48806540920492447,0.5274877691307424,-0.8874130334158317,-0.6737725019988932,1.2024342977392994,-0.4176031094792258,0.07102720270099039,-0.02305110559790828,-0.852230949197861,-0.553987503673395,0.022926645811367462,-0.16048496464134537,-0.4785223814655756,-0.5660662594034352,0.05989758508546016,-0.05758981267919207,-0.22860414055990447,-0.0727073038483499,-0.610197756751023,-0.4441725097707601,undefined,1493660728308
903d185fccf839df,0.7747007983694532,1.3508333419330663,-0.41766478716358213,1.6183346668297987,0.5071042353693762,0.5421643036951447,-0.8883702829241203,-0.5604558213050562,1.2561986410163715,-0.41054138834151926,0.07535309032951125,-0.02305110559790828,-0.852230949197861,-0.5382483237601562,0.025031906012961094,-0.16048496464134537,-0.4842024032233462,-0.5648693328656983,0.058897041160680626,-0.05765140646097728,-0.22825923061107714,-0.07482815096256422,-0.611823329001856,-0.4424693608413435,undefined,1493660728372
903d185fccf839df,0.7747007983694532,1.3508333419330663,-0.41766478716358213,1.6183346668297987,0.5071042353693762,0.5421643036951447,-0.8883702829241203,-0.5604558213050562,1.2561986410163715,-0.41054138834151926,0.07535309032951125,-0.016872137439621522,-0.852230949197861,-0.5382483237601562,0.025031906012961094,-0.16048496464134537,-0.4842024032233462,-0.5648693328656983,0.058897041160680626,-0.05765140646097728,-0.22825923061107714,-0.07482815096256422,-0.611823329001856,-0.4424693608413435,undefined,1493660729042
903d185fccf839df,0.7345064127211963,1.4030775598539003,-0.42468290609038406,1.6303300696482301,0.5161247921182296,0.5308255675395952,-0.8923965158896989,-0.6459105283660755,1.2827610574982016,-0.3953847532250897,0.08766435394947143,-0.006940876233544124,-0.8739903631907309,-0.5354708229461463,0.04397927727623895,-0.17058799150138423,-0.4743902190411123,-0.5662372486778682,0.07752255199578027,-0.05661971062953827,-0.21774020165755512,-0.09275467757841278,-0.6110114673718129,-0.46097620711640985,undefined,1493660729191
903d185fccf839df,0.7345064127211963,1.4030775598539003,-0.42468290609038406,1.6303300696482301,0.5187476453851748,0.5338745419580071,-0.8940532936430787,-0.625567239909656,1.279436666575651,-0.3917952611004306,0.0917551931741389,-0.004266701589808258,-0.852230949197861,-0.5354708229461463,0.04397927727623895,-0.1685674030882094,-0.4783208350164855,-0.5667882147058246,0.0786630321625614,-0.05133804337028119,-0.21653196031574784,-0.09247465086731743,-0.6125375047486304,-0.4650300933095767,undefined,1493660730135
903d185fccf839df,0.7663847185801587,1.461779059666039,-0.42468290609038406,1.6851578664396576,0.498947679404336,0.542329680446586,-0.8941611155850883,-0.5717239849951995,1.2694406137475294,-0.4124866811076791,0.10294951775841728,-0.003682397897799609,-0.852230949197861,-0.5456550012313655,0.022926645811367462,-0.14634070442551372,-0.49108089443336295,-0.5784724957297095,0.06562797279584975,-0.047396041336031855,-0.22607687129052562,-0.14496076878638084,-0.6140590195863852,-0.46778855319380763,undefined,1493660731302
903d185fccf839df,0.8107371441230627,1.461779059666039,-0.4278729601480213,1.6851578664396576,0.48314884830513144,0.5365182300744429,-0.8927068328293494,-0.6173662496297946,1.284023365626694,-0.411371607127505,0.10622372871051589,-0.008602086255432725,-0.852230949197861,-0.5456550012313655,0.022926645811367462,-0.13421706088757848,-0.5052755413105363,-0.5792071172184337,0.06306014323469455,-0.03838795079034132,-0.22652751559130688,-0.14723332866210043,-0.6097265542022718,-0.46828780143975707,undefined,1493660732402
903d185fccf839df,0.8107371441230627,1.461779059666039,-0.4278729601480213,1.6851578664396576,0.48314884830513144,0.5365182300744429,-0.8927068328293494,-0.6173662496297946,1.284023365626694,-0.411371607127505,0.10622372871051589,-0.008602086255432725,-0.852230949197861,-0.5456550012313655,0.022926645811367462,-0.13421706088757848,-0.5052755413105363,-0.5792071172184337,0.06306014323469455,-0.03838795079034132,-0.22652751559130688,-0.14723332866210043,-0.6097265542022718,-0.46828780143975707,undefined,1493660732448
903d185fccf839df,0.7747007983694532,1.461779059666039,-0.42468290609038406,1.6851578664396576,0.5145305096674203,0.5358404216573003,-0.8946029229598013,-0.6146125396860883,1.3660633390123667,-0.42286230586418677,0.09980706292718507,-0.0008996974990741155,-0.852230949197861,-0.5456550012313655,0.022926645811367462,-0.11401100716750076,-0.4944112172403909,-0.5791374548878123,0.06506123108425363,-0.02580742122420761,-0.22330094166417458,-0.14817556905612764,-0.6129431081744275,-0.47118060296089737,undefined,1493660733187
903d185fccf839df,0.8107371441230627,1.659016332858764,-0.4278729601480213,1.7179263709637322,0.49534768439659993,0.5253774790598752,-0.8930750057193563,-0.698753416825935,1.3851156839887013,-0.4113007190902481,0.10607704126190709,0.00919684969699334,-0.7782489416221035,-0.5400999996033458,0.006084520025215651,-0.10188736362956552,-0.4970121525124279,-0.5804737060203521,0.0585961774671804,-0.03028836862021749,-0.22735218107520483,-0.14253950162543116,-0.6106070203878043,-0.4673104644978831,undefined,1493660734077
903d185fccf839df,0.5543244079098707,1.61088110301281,-0.4278729601480213,1.8092283545953385,0.47867456829893024,0.5042046947480362,-0.8930802653262835,-0.8599353913613517,1.3511698579953395,-0.40595843264183623,0.11476221542303043,-0.00447818331590707,-0.7826008244206774,-0.5447291503589962,0.006084520025215651,-0.10188736362956552,-0.4970121525124279,-0.5830005504313615,0.060359373881507784,-0.029749423043059955,-0.22756792037422646,-0.13970008332592038,-0.609995416270635,-0.4683131688245367,undefined,1493660735265
903d185fccf839df,0.5543244079098707,1.61088110301281,-0.4278729601480213,1.8092283545953385,0.47867456829893024,0.5042046947480362,-0.8930802653262835,-0.8599353913613517,1.3511698579953395,-0.40595843264183623,0.11476221542303043,-0.00447818331590707,-0.7826008244206774,-0.5447291503589962,0.006084520025215651,-0.10188736362956552,-0.4970121525124279,-0.5830005504313615,0.060359373881507784,-0.029749423043059955,-0.22756792037422646,-0.13970008332592038,-0.609995416270635,-0.4683131688245367,undefined,1493660735310
903d185fccf839df,0.5543244079098707,1.620860474892843,-0.4272349493364938,1.9311136278309375,0.4746837176319484,0.5001471602651947,-0.8965226813991718,-0.8943195472149019,1.3653017348739558,-0.3985367025216805,0.12196389967791756,-0.005900797722542062,-0.7738970588235294,-0.5447291503589962,0.0039792598236220176,-0.09178433676952666,-0.4970121525124279,-0.5829245551293795,0.06241643624866539,-0.03419957384434836,-0.22782071434664833,-0.14108292452380017,-0.6084285815254817,-0.4624263215202221,undefined,1493660736177
903d185fccf839df,0.5543244079098707,1.620860474892843,-0.4272349493364938,1.9311136278309375,0.47539343106168996,0.5003567925187383,-0.8960650950727365,-0.8923859552341991,1.3670923943932631,-0.3995632628986956,0.12391875619804876,0.008384094614490752,-0.7738970588235294,-0.5373224987893359,0.0039792598236220176,-0.06955763810683101,-0.4746243279636855,-0.5789031361212388,0.06605477775772824,-0.02944145429568193,-0.22415110332333446,-0.1384924354662533,-0.6022192683333771,-0.46113256724065016,undefined,1493660737338
903d185fccf839df,0.5543244079098707,1.679561974704982,-0.4272349493364938,1.985941424622365,0.47898313942214,0.5089237343810481,-0.8985239636026994,-0.8288360286982598,1.3403219446256163,-0.38995064872571605,0.11701543322565451,0.006582994199020241,-0.7303782308377896,-0.5447291503589962,0.022926645811367462,-0.07157819825528432,-0.46459611800226763,-0.5812906560481789,0.06789493893877242,-0.02306649796169321,-0.2232741853904238,-0.14083262787381187,-0.6019579290112604,-0.45732830111517697,undefined,1493660738202
903d185fccf839df,0.5543244079098707,1.679561974704982,-0.4272349493364938,1.985941424622365,0.47898313942214,0.5089237343810481,-0.8985239636026994,-0.8288360286982598,1.3403219446256163,-0.38995064872571605,0.11701543322565451,0.006582994199020241,-0.7303782308377896,-0.5447291503589962,0.022926645811367462,-0.07157819825528432,-0.46459611800226763,-0.5812906560481789,0.06789493893877242,-0.02306649796169321,-0.2232741853904238,-0.14083262787381187,-0.6019579290112604,-0.45732830111517697,undefined,1493660738380
903d185fccf839df,0.8107371441230627,1.679561974704982,-0.4278729601480213,2.1434610736244077,0.49855681926392265,0.5155853576326336,-0.8948290861354206,-0.7688134200012291,1.3706599269879447,-0.3780596506350067,0.12003807641210242,0.001726687122866874,-0.7216744652406417,-0.5438032994866268,0.025031906012961094,-0.07764002002425195,-0.46066550202689444,-0.5837668370426491,0.06265432778177017,-0.015536657761514435,-0.22518142827044516,-0.13770037304964095,-0.6021135810588087,-0.46044194414972034,undefined,1493660739091
903d185fccf839df,0.8190532239123572,1.722413718831935,-0.4278729601480213,2.029202589300096,0.5139442224335757,0.5305018059226614,-0.8949605764559108,-0.6527351786763039,1.373611442412338,-0.3907071130141533,0.10456723917232656,0.008268102229992686,-0.7216744652406417,-0.5410258116233915,0.04608453747783259,-0.07157825478472739,-0.45680164844633797,-0.5869269759321311,0.0729536333922389,-0.010562959895826096,-0.219662244127745,-0.14863120452441175,-0.6025399809312987,-0.45151620685461924,undefined,1493660740110
903d185fccf839df,0.8107371441230627,1.722413718831935,-0.4278729601480213,2.029202589300096,0.5102207996295263,0.5396953120613556,-0.8926936836442642,-0.5873550432653819,1.4016780426796696,-0.38263134683617284,0.10379889421026603,0.010318917192019456,-0.7216744652406417,-0.5428775133681302,0.07345296427195257,-0.06753699316421309,-0.4525089775960679,-0.5891055084242739,0.0766759369988454,0.0056362054137073965,-0.21623847884976416,-0.14945668669986872,-0.605391776990617,-0.43778194987085445,undefined,1493660741386
903d185fccf839df,0.8107371441230627,1.722413718831935,-0.4278729601480213,2.029202589300096,0.5102207996295263,0.5396953120613556,-0.8926936836442642,-0.5873550432653819,1.4016780426796696,-0.38263134683617284,0.10379889421026603,0.010318917192019456,-0.7216744652406417,-0.5428775133681302,0.07345296427195257,-0.06753699316421309,-0.4525089775960679,-0.5891055084242739,0.0766759369988454,0.0056362054137073965,-0.21623847884976416,-0.14945668669986872,-0.605391776990617,-0.43778194987085445,undefined,1493660741447
903d185fccf839df,0.8107371441230627,1.669582602824949,-0.43042500339413103,2.021575800388809,0.5101076570721317,0.5196894768545293,-0.895431311668724,-0.7392503190861498,1.4540553953569557,-0.37501052854590805,0.09654601793095954,0.012114762150445074,-0.6825075200534759,-0.5345449979753261,0.07871612213817043,-0.07157819825528432,-0.44956110236142427,-0.5914106999228447,0.07467484895354035,0.010024762163964413,-0.21720183365552614,-0.14565537712398585,-0.6054675441818531,-0.4408052395588121,undefined,1493660742122
903d185fccf839df,0.6596616946175458,1.71184744886575,-0.43297704664024084,2.029202589300096,0.49250883016550134,0.5315732558487138,-0.8904636078846982,-0.6571154846973479,1.4679436990717145,-0.3736194861411866,0.10165062895502988,0.013639219879519363,-0.6607481060606061,-0.5345449979753261,0.08082139706423165,-0.07157819825528432,-0.44956110236142427,-0.5924746344163531,0.07447893827346172,0.012242138523626682,-0.21725848438348505,-0.1437576532750625,-0.6058969111817237,-0.44360103689840424,undefined,1493660743247
903d185fccf839df,0.6596616946175458,1.71184744886575,-0.43297704664024084,2.029202589300096,0.4906779758245842,0.5364926089318617,-0.8927173516135565,-0.6282988515780532,1.4769996507022936,-0.37500732047622476,0.11051126848838977,0.021456329396193467,-0.6607481060606061,-0.5345449979753261,0.0766108619365768,-0.07561943161107709,-0.4525089775960679,-0.5920123295445135,0.07596925894737458,0.016830875508941735,-0.21599261511808673,-0.1447190365611592,-0.6064363501353273,-0.44995034227620795,undefined,1493660744147
903d185fccf839df,0.6596616946175458,1.71184744886575,-0.43297704664024084,2.029202589300096,0.4906779758245842,0.5364926089318617,-0.8927173516135565,-0.6282988515780532,1.4769996507022936,-0.37500732047622476,0.11051126848838977,0.021456329396193467,-0.6607481060606061,-0.5345449979753261,0.0766108619365768,-0.07561943161107709,-0.4525089775960679,-0.5920123295445135,0.07596925894737458,0.016830875508941735,-0.21599261511808673,-0.1447190365611592,-0.6064363501353273,-0.44995034227620795,undefined,1493660744178
903d185fccf839df,0.5598684611027337,1.732393090711968,-0.43552908988635064,2.1510878625356953,0.4679362992544213,0.5197779880906825,-0.8996994866184281,-0.768044283360195,1.516627189225504,-0.3999189233024111,0.11665386836566335,0.017893989297514047,-0.6259330436720143,-0.5345449979753261,0.08608455493044952,-0.07561943161107709,-0.43525179171372924,-0.5926329579916779,0.09034070896520022,0.01656910197674165,-0.20792922257889784,-0.15444936735270723,-0.6054886423508001,-0.474296832977376,undefined,1493660745132
903d185fccf839df,0.5723427188083144,1.6989333527310182,-0.43744312232093296,2.2230237178202827,0.4486300457391701,0.4968699199295669,-0.9056481078145651,-0.946535175899167,1.5361750036177277,-0.4268610938327872,0.08440208859844908,0.012323177419071867,-0.6128773952762924,-0.5345449979753261,0.10187405797803831,-0.07561943161107709,-0.40684394432579596,-0.5924176379121833,0.1074199240031991,0.017323625870921334,-0.19767403304544245,-0.1734213882136749,-0.6062806265584143,-0.4995911404415143,undefined,1493660746899
903d185fccf839df,0.5723427188083144,1.8586016660439744,-0.4489273328119863,2.2792097824238096,0.4501317570706733,0.4840870554716302,-0.9049669880627796,-1.0398918974981497,1.5516012127341208,-0.4285818559856415,0.0914732535052481,0.012323177419071867,-0.6128773952762924,-0.5345449979753261,0.10187405797803831,-0.07157819825528432,-0.40684394432579596,-0.5926329578754079,0.10930206603726943,0.01582997670301842,-0.19663921714712518,-0.17380541988744322,-0.606447755306249,-0.5067535336546815,undefined,1493660747089
903d185fccf839df,0.5404642749277132,1.8586016660439744,-0.4489273328119863,2.2792097824238096,0.45442089317382867,0.4867051196620908,-0.9038309119189628,-1.0180857997169719,1.5308064853467973,-0.43321325851889375,0.0865198338673588,-0.002711991348514997,-0.504080325311943,-0.5345449979753261,0.15345304335058918,-0.07561943161107709,-0.38063045693213626,-0.5914360315148443,0.12464607212466176,0.018848072023952812,-0.1877503199638264,-0.16798393945488152,-0.607357217076134,-0.520074190956568,undefined,1493660747400
903d185fccf839df,0.5404642749277132,1.9114327820509605,-0.45084136524656865,2.2792097824238096,0.4590905991851776,0.48829598896470217,-0.9081990199240463,-1.009765923381161,1.5370116466751225,-0.4229528796043572,0.07683483720224707,-0.002711991348514997,-0.504080325311943,-0.5428775133681302,0.15345304335058918,-0.07764002002425195,-0.3657311066323137,-0.5897008050247521,0.12491195072999542,0.0307664689878509,-0.18611431070716156,-0.1660455645483496,-0.6092975941615019,-0.5095536708788921,undefined,1493660748289
903d185fccf839df,0.5404642749277132,1.7517644687380045,-0.45084136524656865,2.2230237178202827,0.4477557597804552,0.502122352505258,-0.9032207967297556,-0.9206625044638828,1.624731635985371,-0.41349473751773597,0.10009207242629489,-0.0012155305888143734,-0.47361714572192515,-0.5428775133681302,0.19345306080320612,-0.07359884319790225,-0.3582604085634254,-0.5898021321235905,0.12944588403127283,0.03510883106142233,-0.18316229025576558,-0.17103197709141366,-0.6120871771775468,-0.5046383510394735,undefined,1493660750169
903d185fccf839df,0.5404642749277132,1.7517644687380045,-0.45084136524656865,2.2230237178202827,0.4477557597804552,0.502122352505258,-0.9032207967297556,-0.9206625044638828,1.624731635985371,-0.41349473751773597,0.10009207242629489,-0.0012155305888143734,-0.47361714572192515,-0.5428775133681302,0.19345306080320612,-0.07359884319790225,-0.3582604085634254,-0.5898021321235905,0.12944588403127283,0.03510883106142233,-0.18316229025576558,-0.17103197709141366,-0.6120871771775468,-0.5046383510394735,undefined,1493660750194
903d185fccf839df,0.473935774634996,1.6989333527310182,-0.45084136524656865,2.152358052383802,0.4042266887133434,0.48602264905985115,-0.899938799388321,-1.044703180674616,1.5764003295507443,-0.4684853763649237,0.08702091810404974,-0.004392681013242967,-0.4649133801247772,-0.5428775133681302,0.1987162922917619,-0.08572248673583749,-0.3582604085634254,-0.5916070211657705,0.13286032778802775,0.03985155209733091,-0.18125997403508007,-0.17444602611262502,-0.6132812154464872,-0.49786761247713307,undefined,1493660751468
903d185fccf839df,0.507200093792174,1.7517644687380045,-0.4489273328119863,2.2230237178202827,0.4146666702731458,0.4906694809556313,-0.8942110816831302,-1.0007479591210435,1.6069094025058668,-0.4497615732897451,0.11053661269990987,-0.02215835649999479,-0.43880208333333337,-0.5428775133681302,0.1987162922917619,-0.09986674695166912,-0.3582604085634254,-0.5933929114710416,0.14002506134276144,0.04454807781036294,-0.17756525656971772,-0.17335547481603117,-0.6094780651345886,-0.483669777738577,undefined,1493660752329
903d185fccf839df,0.507200093792174,1.7517644687380045,-0.4489273328119863,2.2230237178202827,0.4146666702731458,0.4906694809556313,-0.8942110816831302,-1.0007479591210435,1.6069094025058668,-0.4497615732897451,0.11053661269990987,-0.015530011090622787,-0.3909313725490196,-0.5428775133681302,0.1987162922917619,-0.09986674695166912,-0.3582604085634254,-0.5933929114710416,0.14002506134276144,0.04454807781036294,-0.17756525656971772,-0.17335547481603117,-0.6094780651345886,-0.483669777738577,undefined,1493660752374
903d185fccf839df,0.5196742134761159,1.76291787061428,-0.45084136524656865,2.1510878625356953,0.3960907011095901,0.5161024429012999,-0.8957784461187459,-0.819846711729518,1.5174174011778405,-0.4527039813901199,0.12093480540637278,0.002507807630709077,-0.2908380681818182,-0.5438033383389504,0.1987162922917619,-0.09380489691797997,-0.3582604085634254,-0.6003211521973817,0.14411819549152033,0.036556284798750074,-0.17813373986750675,-0.18949719700097456,-0.6211772803047826,-0.5034729459490163,undefined,1493660753318
903d185fccf839df,0.5030420538975268,1.76291787061428,-0.4559454517387882,2.1510878625356953,0.3718884557000014,0.5195730105998525,-0.8933458755804548,-0.8010373138610937,1.5176098281128387,-0.44365385132914353,0.11866885968774053,0.007645486458368512,-0.31694936497326204,-0.5465808132514112,0.1987162922917619,-0.09986671868694759,-0.3657311066323137,-0.6028923274079161,0.14595835667256474,0.022790073842805153,-0.18008994150204,-0.19047272868188672,-0.6276857574482478,-0.5034627207907759,undefined,1493660754285
903d185fccf839df,0.5113581336868213,1.7822892486403166,-0.4559454517387882,2.23065050673157,0.34650335512898783,0.5144277201405928,-0.893103933399919,-0.8482549979109917,1.5651028817423838,-0.43460234742881215,0.1205041718247623,-0.0009012789289641103,-0.3604681929590018,-0.5641716431062905,0.2029268568683519,-0.10794918539853314,-0.3657311066323137,-0.6121827555556469,0.15457143102691484,0.021111643491094643,-0.1819352527450809,-0.16870346775439848,-0.6344195205504637,-0.4991098390635236,undefined,1493660755318
903d185fccf839df,0.5113581336868213,1.7822892486403166,-0.4559454517387882,2.23065050673157,0.34650335512898783,0.5144277201405928,-0.893103933399919,-0.8482549979109917,1.5651028817423838,-0.43460234742881215,0.1205041718247623,-0.0009012789289641103,-0.3604681929590018,-0.5641716431062905,0.2029268568683519,-0.10794918539853314,-0.3657311066323137,-0.6121827555556469,0.15457143102691484,0.021111643491094643,-0.1819352527450809,-0.16870346775439848,-0.6344195205504637,-0.4991098390635236,undefined,1493660755346
903d185fccf839df,0.5113581336868213,1.9114327820509605,-0.45084136524656865,2.285990324885702,0.3420702199194638,0.4909792687744955,-0.8970460127856009,-1.0254401138725093,1.6168462719560188,-0.4266359851401102,0.12326236052257865,-0.0023006824438238545,-0.40398702094474154,-0.5641716431062905,0.19450575716410706,-0.11401100716750076,-0.38063045693213626,-0.6116001246708868,0.1488130558528044,0.018062751750448393,-0.18470798928467566,-0.17347200231190488,-0.6356091661492035,-0.5071212535548071,undefined,1493660756633
903d185fccf839df,0.5113581336868213,1.9114327820509605,-0.45084136524656865,2.285990324885702,0.3420702199194638,0.4909792687744955,-0.8970460127856009,-1.0254401138725093,1.6168462719560188,-0.4266359851401102,0.12326236052257865,-0.0023006824438238545,-0.40398702094474154,-0.5641716431062905,0.19450575716410706,-0.11401100716750076,-0.38063045693213626,-0.6116001246708868,0.1488130558528044,0.018062751750448393,-0.18470798928467566,-0.17347200231190488,-0.6356091661492035,-0.5071212535548071,undefined,1493660757222
903d185fccf839df,0.5113581336868213,1.9243471120096312,-0.4935881372695855,2.2901946250934304,0.32340168002470326,0.4713763915604906,-0.9038572105653357,-1.1869820164404055,1.6882325359946462,-0.4290408435327421,0.13037604146996615,-0.007436421768353611,-0.49102467691622104,-0.5641716431062905,0.2029268568683519,-0.10794918539853314,-0.3657311066323137,-0.6121067602536648,0.15500523363159024,0.029088038420743402,-0.17917940585029107,-0.17819582709237103,-0.6339983102130767,-0.5181169677107691,undefined,1493660758380
903d185fccf839df,0.5113581336868213,1.9243471120096312,-0.4935881372695855,2.2901946250934304,0.32340168002470326,0.4713763915604906,-0.9038572105653357,-1.1869820164404055,1.6882325359946462,-0.4290408435327421,0.13037604146996615,-0.007436421768353611,-0.49102467691622104,-0.5641716431062905,0.2029268568683519,-0.10794918539853314,-0.3657311066323137,-0.6121067602536648,0.15500523363159024,0.029088038420743402,-0.17917940585029107,-0.17819582709237103,-0.6339983102130767,-0.5181169677107691,undefined,1493660758408
903d185fccf839df,0.5196742134761159,1.9243471120096312,-0.4942261480811129,2.2901946250934304,0.3108531290376152,0.4775022893851513,-0.9066816223659762,-1.1481237943700513,1.6738269511028552,-0.4307997858107926,0.1328353738789313,-0.0206771842241593,-0.5432472704991087,-0.5641716431062905,0.19450575716410706,-0.10794918539853314,-0.38063045693213626,-0.6113468069680845,0.1397032085929696,0.02670127928233277,-0.18805915531227077,-0.1717019633235553,-0.6338862972268002,-0.5200499599630154,undefined,1493660759368
903d185fccf839df,0.5196742134761159,1.9472408138483346,-0.4942261480811129,2.293617113796989,0.31100741434315304,0.49431240870944304,-0.9065027954685678,-1.0239278649028358,1.6315346044441252,-0.4311884469495868,0.14511433447642985,-0.0206771842241593,-0.5432472704991087,-0.5641716431062905,0.19345306080320612,-0.10794918539853314,-0.40113923347119,-0.6135633371998049,0.12518482607891818,0.025007450202467422,-0.19583912089536226,-0.1934823062679914,-0.6341984164246377,-0.5151792373681505,undefined,1493660760562
903d185fccf839df,0.5196742134761159,1.9419575619532727,-0.4942261480811129,2.23065050673157,0.29861315019800316,0.5109897624552272,-0.9060872861080318,-0.9084133869519065,1.6382755046138413,-0.4217458363388676,0.12800768386572473,-0.018713748732656736,-0.4649133801247772,-0.5465808132514112,0.1987162922917619,-0.10794918539853314,-0.38063045693213626,-0.611555794048535,0.12953684208942184,0.02466868464497069,-0.19317201593631086,-0.18756020163418344,-0.633314781902566,-0.5125099357140686,undefined,1493660761252
903d185fccf839df,0.5196742134761159,1.9419575619532727,-0.4942261480811129,2.23065050673157,0.29861315019800316,0.5109897624552272,-0.9060872861080318,-0.9084133869519065,1.6382755046138413,-0.4217458363388676,0.12800768386572473,-0.02189053233060877,-0.4649133801247772,-0.5465808132514112,0.1987162922917619,-0.10794918539853314,-0.38063045693213626,-0.611555794048535,0.12953684208942184,0.02466868464497069,-0.19317201593631086,-0.18756020163418344,-0.633314781902566,-0.5125099357140686,undefined,1493660761358
903d185fccf839df,0.5113581336868213,1.9419575619532727,-0.4942261480811129,2.1510878625356953,0.310626844178893,0.521310622062435,-0.9059742044281548,-0.8284217873293601,1.6093981408326532,-0.43010530926846835,0.11914066738289487,-0.040787201958339174,-0.4649133801247772,-0.5530616528010257,0.2029268568683519,-0.11401100716750076,-0.3657311066323137,-0.6090416153144872,0.13660362074454452,0.0197873774250357,-0.1899877074601198,-0.18869754884170914,-0.632115830800477,-0.5100924670666167,undefined,1493660762349
903d185fccf839df,0.5113581336868213,1.9419575619532727,-0.4891220615888934,2.1510878625356953,0.3034062847098494,0.5256546522265626,-0.9079649676797082,-0.7977287682067424,1.5807120696699473,-0.4256422569161331,0.10872648262403108,-0.040787201958339174,-0.4649133801247772,-0.5530616528010257,0.2029268568683519,-0.0938049251827015,-0.3582604085634254,-0.6082626632034113,0.13762515470434492,0.01683087611474557,-0.1894314733865505,-0.1877453367415724,-0.6321600594611423,-0.51375369324282,undefined,1493660763426
903d185fccf839df,0.5030420538975268,1.809292172377839,-0.4891220615888934,2.173184731994749,0.34328393278216257,0.54922888233012,-0.9046882299452008,-0.6280900438503663,1.5932950091082125,-0.33703089211247544,0.1560251074964844,-0.018921421628633972,-0.5432472704991087,-0.5530616528010257,0.19661106153910343,-0.0938049251827015,-0.3657311066323137,-0.6160395183714485,0.14232001467413702,0.017277431046150243,-0.19292287014054244,-0.16476118020202044,-0.6308945808031119,-0.5145235393536395,undefined,1493660764285
903d185fccf839df,0.5030420538975268,1.809292172377839,-0.4891220615888934,2.173184731994749,0.34328393278216257,0.54922888233012,-0.9046882299452008,-0.6280900438503663,1.5932950091082125,-0.33703089211247544,0.1560251074964844,-0.018921421628633972,-0.5432472704991087,-0.5530616528010257,0.19661106153910343,-0.0938049251827015,-0.3657311066323137,-0.6160395183714485,0.14232001467413702,0.017277431046150243,-0.19292287014054244,-0.16476118020202044,-0.6308945808031119,-0.5145235393536395,undefined,1493660764336
903d185fccf839df,0.4988840140028795,1.809292172377839,-0.4942261480811129,2.173184731994749,0.3250885360274517,0.5490681654442807,-0.9022635487293251,-0.6364948470487908,1.5692951527970034,-0.32416690768633494,0.16026726842969932,-0.030443830135910514,-0.5432472704991087,-0.5502841778885649,0.19134788894841798,-0.11401100716750076,-0.3686802052082928,-0.6133606830907151,0.14379634181193546,0.02200475389239634,-0.19058026099171113,-0.1700475958773367,-0.6320277831771527,-0.5224141497755111,undefined,1493660765365
903d185fccf839df,0.5002700273010953,1.7822892486403166,-0.4935881372695855,2.1324705039873626,0.29592858495340113,0.5391595812416047,-0.8994864736529106,-0.7146093033783276,1.5108905804578134,-0.33256859757920726,0.16539961254695024,-0.034350288672692214,-0.4649133801247772,-0.5521358537317546,0.19029526620985496,-0.1281552673833324,-0.36533032272706367,-0.6101245488106645,0.1508561236255961,0.024175934713785065,-0.18582404189495838,-0.17031391884324731,-0.6345588498461715,-0.5288798763784033,undefined,1493660766859
903d185fccf839df,0.5002700273010953,1.7693751525055847,-0.4935881372695855,2.060569270742149,0.29727601097936623,0.5567756165515392,-0.898384584823181,-0.5828830588872209,1.479413605044277,-0.33485917337662185,0.15926925804810388,-0.038432460188782346,-0.43445020053475936,-0.5530616787025747,0.17871629828992103,-0.11805218399385047,-0.3686802052082928,-0.6107135124010253,0.14572046450328552,0.01607635200516889,-0.1891272354602539,-0.1723623416384389,-0.6367524490377976,-0.529151798711551,undefined,1493660768781
903d185fccf839df,0.5002700273010953,1.7693751525055847,-0.4935881372695855,2.060569270742149,0.29727601097936623,0.5567756165515392,-0.898384584823181,-0.5828830588872209,1.479413605044277,-0.33485917337662185,0.15926925804810388,-0.038432460188782346,-0.43445020053475936,-0.5530616787025747,0.17871629828992103,-0.11805218399385047,-0.3686802052082928,-0.6107135124010253,0.14572046450328552,0.01607635200516889,-0.1891272354602539,-0.1723623416384389,-0.6367524490377976,-0.529151798711551,undefined,1493660768814
