UUID,iqrAccX,iqrAccY,iqrAccZ,iqrAccXYZ,meanAccX,meanAccY,meanAccZ,meanAccXYZ, covarianceAccXY, covarianceAccXZ, covarianceAccYZ,pressureDerivative, pressureIQR, iqrGyroX, iqrGyroY, iqrGyroZ, iqrGyroMagnitude, meanGyroX, meanGyroY, meanGyroZ, meanGyroMagnitude, covarianceGyroXY, covarianceGyroXZ, covarianceGyroYZ, class, timestamp 
903d185fccf839df,-1.0035558849956145,-1.0072083606719036,-0.675102467286093,-0.8326339965606903,-1.6771215000675297,-1.0852944246366327,1.6900521892980478,-0.9032227084355566,-0.3086117806457021,-0.6302300262528284,0.07234601405359606,1.825538601048926,-0.40181107954545453,-1.0372727748188542,-1.147601140499586,-1.0374287588462483,-1.1861539878661955,-1.0306693382736958,-1.0811371789675228,-1.0633789926672803,-1.130227440124408,-0.40082558263669155,-0.6567458502417178,-0.4931110772018896,undefined,1490102875032
903d185fccf839df,-0.8136718906130078,-0.5328998914539145,-0.6690415551792944,-0.738760188113591,-1.578217978536783,-1.3035271945589102,1.778247753263189,-0.8252939869258186,-0.5041744550370693,-0.4506095386443069,-0.03572591873081671,3.892310762153942,2.20279077540107,-0.9613543890174443,-1.1581274635942556,-0.8070794468313139,-1.113440405764589,-0.9542996462828487,-1.1309995602916871,-0.7701720334683259,-1.0475056602550936,-0.44929874748559073,-0.5990185788320183,-0.48776332795138405,undefined,1490102876536
903d185fccf839df,-0.7790215236522042,-0.04626399036340684,-0.28368200846891983,-0.39763123804091377,-1.408189145890333,-1.4695796700563502,1.8464342827767093,-0.662697187074361,-0.634979540974218,-0.1495203533390813,-0.06705575060323511,2.4869902790284937,2.7685355392156863,-0.9613543890174443,-1.1539169284666009,-0.823244323725042,-1.1588983395599355,-0.9545641791969619,-1.1121865770186887,-0.8097459198240793,-1.0515730672808046,-0.45518405098868936,-0.6175760032151689,-0.5041807208285188,undefined,1490102878012
903d185fccf839df,-0.7582312724208534,0.08405354381548753,0.053187700017571185,0.009710591446363276,-1.3635040543131307,-1.623974608180652,1.9018302336566786,-0.5472535713870001,-0.5817077708983077,-0.21823022608935283,-0.0978926457760454,1.532481017404675,0.8885221702317291,-0.8983977082168125,-1.1360221762607692,-0.5464210754348042,-0.9560226817608265,-0.9137282286875696,-1.0886130306745352,-0.610739557944741,-0.9904027434458935,-0.4535631138336071,-0.5938809205427455,-0.4829613220631924,undefined,1490102879500
903d185fccf839df,-0.5877515159713818,-0.1560358826960833,1.1422732989111923,1.0991507114742132,-1.2026871782979407,-1.7655783767843096,1.9565985740141802,-0.4373608496045573,-0.4145608461893082,-0.23593583519767172,0.012818401605607033,-0.21649403518626528,-0.4779690285204991,-0.8891393290008646,-1.0318115275603508,-0.7060490793044,-0.9781167015939966,-0.8872388019310267,-1.015885610120337,-0.6757463197252905,-0.9605148105444038,-0.4069489179829414,-0.6230932854671637,-0.5096326787086314,undefined,1490102881033
903d185fccf839df,-0.5822074627785188,-0.5880793305053171,1.384717661428571,1.4643663504920212,-1.187783206388007,-1.8546251919715864,1.945016915370196,-0.6260444698110308,-0.3417688917329196,-0.34991116893619534,-0.006850013684892355,-0.16032722633412355,-0.3996351381461676,-0.8613643208607661,-1.0497062760850657,-0.6191629507947765,-0.9612838995988076,-0.8782087196497138,-1.0012962013401658,-0.6458136742967376,-0.9468015137844155,-0.4186446576910149,-0.6248934583135672,-0.5157188336260983,undefined,1490102882519
903d185fccf839df,-0.4228157954620683,-0.5745779563205329,1.4938176372682388,1.52027669210904,-1.0546245715397353,-1.8433237227379233,1.9549286598137436,-0.5137017357396624,-0.3041527066696081,-0.5198307476073696,0.000680649730671067,-0.2046863948838047,0.5969460227272728,-0.8252568232294126,-0.9991798987266103,-0.48782339669504016,-0.9142017897829572,-0.8272305225139459,-0.9576416246022889,-0.48960860155309593,-0.8769096641640478,-0.4283961274710977,-0.6049483085198798,-0.5013009946830456,undefined,1490102884018
903d185fccf839df,-0.5572591889052255,-0.7060694328116931,1.2526490422369656,1.1794845786235069,-0.8999585432377797,-1.9155720641387504,1.9358730829657294,-0.7138383008855133,-0.24534545088062837,-0.6154021076236584,0.007334386043937715,-0.07435380311657504,0.022497493315508033,-0.7687809431260717,-0.941285081213642,-0.5787507656266369,-0.9433595987151616,-0.8135703633284749,-0.9176758410888058,-0.47026815354753,-0.8564270451520227,-0.4302494999565209,-0.6187119113142399,-0.5033678558484765,undefined,1490102885532
903d185fccf839df,-0.4602381200084839,-0.7389423457764716,0.9751139580171029,1.041970685099292,-0.8162741161978583,-1.9774785844651204,1.9855711528176259,-0.4561195228786482,-0.2004780779705563,-0.747183953215151,0.06775219807981293,-0.0775240126104547,-0.35611631016042783,-0.714156751816695,-0.917074522635211,-0.35850457939826674,-0.9152254038474421,-0.7671752178703879,-0.8917876409001537,-0.331481965763285,-0.8023923636861348,-0.4274670905210419,-0.6048638563528739,-0.5043890269440776,undefined,1490102887348
903d185fccf839df,-0.43528988064060037,-0.7618359160892095,0.878774198407984,0.9012864661197594,-0.7888318723941551,-1.9894881418415915,1.9637358763273423,-0.61277993098938,-0.20127499016978226,-0.5965199242648036,0.11170198719768291,0.10087111504454287,-0.36482007575757575,-0.7030467420852684,-0.8886534362913591,-0.1806910042290623,-0.8560982505866517,-0.7245228420924197,-0.8774931554165967,-0.14822506299336613,-0.7422480123524273,-0.41664873970535027,-0.5536765601284597,-0.4602687020954561,undefined,1490102888488
903d185fccf839df,-0.16640305924887627,-0.7019603716668319,1.266685534227519,1.1771117611162758,-0.6740023572904197,-1.9517125406394595,1.96312575249608,-0.5418946983582115,-0.28147902751582454,-0.46922829137813765,0.10716210308755299,-0.06407027340951447,-0.5998217468805704,-0.6345350531812297,-0.8391796963959343,-0.02308362410354333,-0.8203137523730996,-0.6299149950397182,-0.8505414412348044,0.24280306120812634,-0.6188579573079785,-0.3887826017066127,-0.5751129345036213,-0.46270879646353885,undefined,1490102889987
903d185fccf839df,-0.23708973745787962,-0.645606873391194,1.4842476021638018,1.4939326521185214,-0.7105988675493419,-1.9710149455689685,1.8908139759484865,-1.0352516834139822,-0.2870587070986328,-0.6536280361616096,0.14928281240513025,-0.07843993794750281,-0.7042669340463459,-0.5826883108827646,-0.7686533103111703,0.0819879061173596,-0.9142697129180927,-0.6083513206776452,-0.7944130236480527,0.47598172353602675,-0.5430523431470325,-0.4430160385789692,-0.6774309557770711,-0.4429832502181349,undefined,1490102891488
903d185fccf839df,-0.2246156522793476,-0.5505103413975561,1.3898217479207906,1.4032188561125811,-0.8531277706972149,-1.92429273725362,1.8614048607690548,-1.200895923606981,-0.21208856720551936,-0.9572783849671733,0.07336746706717068,-0.08484038199610307,-0.5693585672905526,-0.4465907580455075,-0.768653325035638,-0.08774313167845542,-0.9154850469514962,-0.5586947106707713,-0.7504660555593093,0.2476689685556103,-0.5479626785485125,-0.5057340041584265,-0.6485056664263465,-0.417506866590751,undefined,1490102893003
903d185fccf839df,-0.31747868128144197,-0.6902199986344233,1.4000299209052296,1.4363694378198513,-0.9301162093471929,-1.9134873959652061,1.9950752682966117,-0.3356781084066542,-0.2783478958542012,-0.9013661318154157,-0.008433139531583684,-0.036049581077662346,-0.843527183600713,-0.5882433384123334,-0.7970743892927885,-0.24332988099371725,-0.8504070580582934,-0.609104944219741,-0.801199932058016,0.09637923986495094,-0.6259052997062364,-0.43489015547346327,-0.6333746544545082,-0.4720751950271476,undefined,1490102894492
903d185fccf839df,-0.44637805603714586,-0.743051421535329,0.7333079875166759,0.7846603232670877,-0.953115025024453,-1.9539695730188904,1.9906493048772085,-0.4578792514824795,-0.2816725370739257,-0.474727354064279,0.13951529944343688,-0.07269186484790986,-0.9001016599821747,-0.6974917210310868,-0.8454954917251828,-0.08976363529746566,-0.8539941894279826,-0.6224991202026218,-0.7455542942382432,0.2910771862417674,-0.5895289823593103,-0.4833553136208786,-0.5625342561293281,-0.39361162005329703,undefined,1490102895990
903d185fccf839df,-0.4131135988583288,-0.683175847884959,1.2513732747508601,1.3333622711542648,-0.9884463978425017,-1.8855900976232334,1.8941380517166226,-1.0554229042004262,-0.24418633740211013,-0.10009911126861905,0.4209398564912238,-0.08870786242968921,-0.7086188168449198,-0.5789849850979345,-0.8518113165033664,0.0496583501829543,-0.673566824019414,-0.5903214321154333,-0.7778235852001433,0.3155299159680686,-0.5882136636731141,-0.4355882372535083,-0.5023619776240515,-0.31777003635297313,undefined,1490102897497
903d185fccf839df,-0.4948885214746972,-0.5604895817516234,1.3974776235221704,1.4610220752528302,-1.0311834669067836,-1.8961671731249032,1.9497978970195826,-0.7039943399359708,-0.2101045832342062,-0.1288988907306088,0.5064940891956049,-0.03516676847348762,-0.5911179812834225,-0.5336191341521822,-0.8833903005118426,0.051678938596129154,-0.7316437452920943,-0.5565858416442664,-0.8190138112042827,0.111007762419657,-0.6161132041068763,-0.44374676039054467,-0.5597292811540548,-0.4252106008191272,undefined,1490102899079
903d185fccf839df,-0.5905235425678133,-0.7465734969100611,0.878774198407984,0.8916239125634269,-1.0884439425620012,-1.9445571176063579,1.9577293863609824,-0.7104704378015216,-0.21485970257206416,-0.2665405663707475,0.37963698977077,0.006269283924559707,-0.7434338792335116,-0.5132507775817439,-0.848653426200976,-0.019042390747750555,-0.7091421930846502,-0.5793591066596979,-0.8305445556024514,0.14117331944522327,-0.626151720015676,-0.4089346782133228,-0.5334574541180855,-0.36782016017094166,undefined,1490102900515
903d185fccf839df,-0.5226088564498317,-0.7747502460478801,0.5004336601037344,0.5197148550086266,-1.092198219772467,-1.9579618887914,1.9590995186793898,-0.7181707868709457,-0.23756534272769916,-0.2648741957773633,0.2234273793453899,-0.19185518460846998,-0.49102467691622104,-0.6049083562471671,-0.8981271660964008,-0.04328970608834259,-0.7980038059470795,-0.6514216741101508,-0.8337560923331476,0.036171320391251684,-0.6790574389731528,-0.37337667297731025,-0.5841167278472594,-0.3711279025398108,undefined,1490102902018
903d185fccf839df,-0.48657244168540265,-0.8017530236454409,0.4474786356784817,0.41331582377727344,-1.1768083629987498,-1.957645111855484,1.9411905445217,-0.8497114866323571,-0.24094703766276396,-0.3478559242075579,0.12931039616354867,-0.08968788396937187,0.10083138368983958,-0.6660133741553838,-0.9476008986295918,-0.06753699316421309,-0.8542615074667463,-0.7022118813619412,-0.8814323617018796,-0.06901545987345209,-0.7298278985688685,-0.3946645944107235,-0.6474191801606486,-0.4072631526260588,undefined,1490102903508
903d185fccf839df,-0.5877514469605624,-0.7260279719758126,0.17313373258473086,0.1267470572670894,-1.1873820585460328,-1.9362021367638498,1.981531775744987,-0.5584309323490491,-0.24431330286300995,-0.5317678575166026,0.05360268939801059,-0.04497305838389332,-0.5084322081105169,-0.6660134000569328,-0.9844430478665197,0.8740662238214373,-0.6760926555707074,-0.6977914868799783,-0.9218109567940529,0.8534900055545046,-0.5400504826432037,-0.4613367600241232,-0.5464047587422013,-0.5103314680580785,undefined,1490102904979
903d185fccf839df,-0.7914956088307363,-0.7559657514939995,0.2286408002560933,0.20168377944083915,-1.285569326166215,-1.959631953970664,1.9621185403883084,-0.730522444971929,-0.25460456349635807,-0.6209192114049634,0.05365703001408792,0.08423241930291686,-0.3343568961675579,-0.7039725800068631,-1.0844431577581661,0.48813013422651963,-0.7611411053938282,-0.708519493192647,-1.0301285855109958,1.0822339141399449,-0.5277125985456859,-0.44972809427018373,-0.5090300731191039,-0.5205634685052016,undefined,1490102906721
903d185fccf839df,-0.8635683693487749,-0.7630099314714561,0.42833856546960775,0.351040080560546,-1.3508629304782864,-1.9808606408645486,1.9479254821910759,-0.8456763022374041,-0.2907800287620684,-0.6667658740964308,0.007442177900371307,0.16807304113370888,-0.17768911541889482,-0.676197578342152,-1.1002326460812872,0.7629328153021238,-0.7185906102340792,-0.7036747917832786,-1.0526163357848606,0.9838378475093148,-0.5490629628886824,-0.4377578421008812,-0.5001504156915666,-0.4811839268235541,undefined,1490102908016
903d185fccf839df,-0.8455501964719702,-0.7583138407144774,0.641433922382825,0.6101651851341671,-1.430721082733073,-2.005000875948094,1.995046340458512,-0.5603842300870787,-0.297414557391464,-0.43939373701826223,0.03542889257438342,0.10123166270778218,-0.8348234180035651,-0.6882334065690117,-1.0697062958547248,0.9649936634148378,-0.6532660349153326,-0.7077405420781709,-1.0477395586833382,0.8633142147319841,-0.5719932009254267,-0.43441861134704074,-0.4691296337849614,-0.4822491037143345,undefined,1490102909516
903d185fccf839df,-0.626559871068718,-0.7536177061155102,0.6892851144528075,0.7167198579384066,-1.3283886823392042,-2.012517330751,1.933690348185947,-0.9554290111320268,-0.27973645188899465,-0.05614317211278998,0.06591965120104078,-0.05720198043221434,-0.8087121212121212,-0.8039626352127668,-1.0644431269451562,-0.17260864351018254,-0.9076034431532503,-0.8183897330295735,-1.044472047906057,-0.42533548947948197,-0.8817278012670842,-0.44627087290479206,-0.5939895940674963,-0.5544480952841073,undefined,1490102910993
903d185fccf839df,-0.4034115057708186,-0.8616285826818147,0.599325462958963,0.6383329124690262,-1.1507752677514167,-2.0464147476383534,1.9527616870943945,-0.8401239868426507,-0.2369144409208058,0.1120343023249451,0.18488260962022324,-0.030108378724969163,-0.7477857620320856,-0.7326734066423947,-0.9749693254237117,-0.5221737318294907,-0.9009204731258967,-0.7732675094665723,-0.9698370659419859,-0.5427332405909902,-0.8667950109509551,-0.4093928213691724,-0.5750920436701118,-0.44864489029046145,undefined,1490102912510
903d185fccf839df,-0.365989181224403,-0.7765113202702366,0.785624619924977,0.872948413308176,-1.0601377061486141,-2.0096942918694123,1.9841563091264882,-0.5713003120904435,-0.27903117803953037,-0.06322043080586678,0.0764849668174464,-0.04865719936361115,-0.9610280191622104,-0.7215634292879043,-0.9581272290864952,-0.34031905756192077,-0.8252083074400117,-0.7673588732923989,-0.9332717321658957,-0.389149144390422,-0.8282020637402353,-0.42259413067840595,-0.5360896127414875,-0.44046809375868906,undefined,1490102914026
903d185fccf839df,-0.45053606142638336,-0.7365942419419975,0.42578601394959914,0.4692690368350629,-1.0340531783150202,-2.0018354392272073,1.980387796049235,-0.5831670938141578,-0.31128369138397505,-0.18811735140475522,0.0964642212802064,-0.033484750683830104,-1.0045468471479502,-0.727118430915924,-0.9654956250676052,-0.18473230824665893,-0.8332906722298449,-0.7558265822246882,-0.9346710943473482,-0.2787114934073333,-0.8068171475567201,-0.4065581311984794,-0.5131207871871012,-0.41419250607438785,undefined,1490102917340
903d185fccf839df,-0.5433990559230679,-0.768293095682541,0.45832520067987237,0.4121300039464265,-1.1422998537958238,-2.009370528775159,1.950031950051608,-0.8075252445221358,-0.32905005993073116,-0.3907661646406757,0.03692349996241912,-0.03963164940250237,-1.013250612745098,-0.7298959382053212,-0.9718114277590876,-0.18877344267592633,-0.8545468431391229,-0.7583850920406312,-0.9264498415427843,-0.22849716217426438,-0.7965823788649974,-0.40402621981104986,-0.5139381080029519,-0.41014562785345876,undefined,1490102918502
903d185fccf839df,-0.752687270986105,-0.8469531711937897,0.3300846463574318,0.35283914437839237,-1.304299581911641,-2.0557689735165,1.9979811958863316,-0.5610491681216299,-0.3017461193502249,-0.5589483829366012,0.09717974490469132,-0.037263493482368695,-1.0001949643493762,-0.732673439019331,-0.9981272612635796,-0.2372680309600281,-0.9271976914438786,-0.7438003225079842,-0.9273314405818681,-0.21138948924305329,-0.7884239237788275,-0.4147224137283167,-0.5337611663014941,-0.4053835257344555,undefined,1490102920019
903d185fccf839df,-0.6903166035555767,-0.8733689045652367,0.327532603111322,0.30305315125546617,-1.2696984925690593,-2.074102415191417,1.981281928179353,-0.6872948500388116,-0.2962998677374783,-0.4670777828104053,0.09618732580529438,-0.07353730682894563,-0.847879066399287,-0.7363767777549356,-1.0286536004467914,-0.3221335922550179,-1.0105075960908034,-0.7573654882691344,-0.9922758393716342,-0.29143060848437835,-0.832430237546884,-0.43749248669983715,-0.5419324368071462,-0.4242659960535345,undefined,1490102921513
903d185fccf839df,-0.7069487631341657,-0.84284406620694,0.41557784096516,0.40673203870203356,-1.2921007407028398,-2.0557899363111165,1.9323175719225316,-1.0035132831508513,-0.31978057244858177,-0.3310337026623856,0.09176283360112567,0.004263022534409135,-0.8304715352049912,-0.7410059090844242,-1.0507589135480964,-0.42518457645982827,-1.00524267887663,-0.7749394069960437,-1.0215085154713082,-0.3660976743709537,-0.8630845411855733,-0.43805234407063187,-0.5351350165812311,-0.45865872104491323,undefined,1490102924016
903d185fccf839df,-0.6570521808821694,-0.8357998789224852,0.43408053570488003,0.43002912649753783,-1.284520181315314,-2.0566866935092047,1.9406724664304698,-0.9455410482657048,-0.3201957990665212,-0.31734100831115936,0.08802766954619685,0.02965880249859013,-0.7869527072192514,-0.7548934390560225,-1.0370747001510363,-0.4433700135020096,-1.022961632941085,-0.7938369115218046,-1.0121397857135543,-0.37308856844202004,-0.8700796016347081,-0.43880602733422386,-0.5577139310632308,-0.4600161852194794,undefined,1490102924506
903d185fccf839df,-0.5960675785079714,-0.838147953528967,0.6108094034295076,0.6338165384950438,-1.2265499943669114,-2.0440412537741603,1.9719592691393584,-0.7193821459970364,-0.27027233481155044,-0.22366368351450364,0.10075053216150016,0.046688220641449826,-0.6868594028520499,-0.7298959058283848,-1.0949694808528356,-0.5585446977741984,-1.0272027710729896,-0.7918610321144686,-1.045787448815769,-0.4765353258790723,-0.8970803522110045,-0.4325770643152924,-0.6058223165671616,-0.49212676163642927,undefined,1490102926009
903d185fccf839df,-0.6445781129563423,-0.8487142161881538,0.5916693332206338,0.598349793265631,-1.276497339009669,-2.05103828865461,1.9311946474148376,-1.0068083860411547,-0.27363177709386155,-0.2589466582947168,0.09678018353294918,0.07046258120159046,-0.6346368092691622,-0.7326734325439437,-1.0844431503959324,-0.5464210683686238,-1.0391880987868982,-0.7760033419380222,-1.043156648195289,-0.5199127464454776,-0.895650878414154,-0.43483244549465205,-0.6233326391117845,-0.4962894034941357,undefined,1490102927726
903d185fccf839df,-0.6071557021464024,-0.8851092045276645,0.5623205817534218,0.5639770055131155,-1.1971946171236705,-2.069339120615791,1.948443547712044,-0.8922495497154681,-0.26378388414647774,-0.34002336312353443,0.10946310211853615,0.04189235690285777,-0.9175091911764707,-0.7243409365773015,-1.0686536767972787,-0.4595349469251807,-1.0485038113640746,-0.7714309574002252,-1.0342637020665144,-0.4704991353045149,-0.8833732006745967,-0.42725345670176484,-0.6184321187698503,-0.48541213877100925,undefined,1490102929003
903d185fccf839df,-0.5239948352426377,-0.8909793472018803,0.5725292630117598,0.5566966798363016,-1.1362724355233313,-2.065898833531289,1.9259823800924565,-1.0291681838504827,-0.30198548294488364,-0.42701446712892005,0.12088332169864895,-0.014442630080455569,-0.9175091911764707,-0.7002692412712586,-1.0349694031382737,-0.4373082906595674,-1.038948356782089,-0.7640024146936477,-1.0075568746933208,-0.4553008692451609,-0.868845983548779,-0.4301338092468617,-0.6460469780334808,-0.4843552043248315,undefined,1490102930503
903d185fccf839df,-0.57527739628744,-0.9121119163622425,0.6261216629061663,0.6373924409268801,-1.1162770416368495,-2.075141254890907,1.880841765404429,-1.3304365035107337,-0.31556084947068574,-0.4536660667208695,0.11893077232443809,0.016864658275981305,-0.852230949197861,-0.7530417826389947,-1.0223378198420106,-0.4231639597819319,-1.0648309050774993,-0.787003666351402,-0.9831310077576801,-0.401206128642256,-0.8620061318562822,-0.42400162192826035,-0.6606592030124971,-0.49021817339925194,undefined,1490102932161
903d185fccf839df,-0.49766061708194814,-0.8434310885120594,0.86729000380049,0.8803789541125041,-1.1377124330086907,-2.058440610194474,1.9203966785831945,-1.0596540509427566,-0.28398721109692054,-0.22316967924918873,0.1667938272751457,0.1074276300983305,-0.33870877896613194,-0.7474867615848132,-0.9939167629470937,-0.28778327831910855,-1.0424528589546922,-0.7660542880021894,-0.9451383249725908,-0.3565968301246306,-0.831750498243089,-0.4264716760204895,-0.6689417621489551,-0.451411430990549,undefined,1490102933520
903d185fccf839df,-0.357673032424289,-0.7806204252570863,1.291568082945564,1.2550251715319531,-1.0419423086257031,-2.0080894469983037,1.9678120800761678,-0.6827437044175214,-0.23896481469219144,0.019788987316345336,0.21411088139845125,0.04194271203566273,-0.2212079434046346,-0.7604484536348167,-0.964443009691276,-0.1705879632366627,-1.0026760543661053,-0.7729381982556678,-0.8887860097558725,-0.1910327463824089,-0.7869164463299873,-0.42643706615202676,-0.5939149577512365,-0.4021961155324445,undefined,1490102934999
903d185fccf839df,-0.18303518432205557,-0.7225058966010804,1.4523468074504802,1.4430204524508556,-0.9532898852369828,-1.983699982767115,1.9777527518340543,-0.5707634850100032,-0.21221055819784315,0.24569018320841826,0.20202213963582313,0.015269273025880312,-0.4300983177361854,-0.7956301457215118,-0.9086534891910704,-0.16250558131924175,-0.9769311265071327,-0.7896191706395582,-0.8392765757478222,-0.050860697902194094,-0.7542281153777511,-0.4319456329421879,-0.5636663566852296,-0.3712543342667319,undefined,1490102936506
903d185fccf839df,-0.3895514763048903,-0.767706109912412,1.3400566504847005,1.2559303992260495,-0.9794567007274262,-2.000917718474777,1.926276917032863,-0.9431203503040355,-0.23568089487651134,0.05887966845033782,0.1651767872608419,-0.08626273371169646,-0.7521376448306596,-0.6956400905156082,-0.9128640169564913,-0.11603159558067562,-0.9679488860567063,-0.7244278493158887,-0.8355682657140328,0.04037509127281727,-0.7031239287332595,-0.43458721933468747,-0.5514833485457863,-0.40104147216609154,undefined,1490102938032
903d185fccf839df,-0.2578800059419354,-0.8346258489262425,1.193314163833388,1.2017661503975399,-0.8093621277079868,-1.9860292218001385,1.9097827666633964,-0.9907931051791253,-0.17710504895625526,0.017473353038589996,0.18149824918182722,-0.03186753223480302,-0.9566761363636364,-0.6382383595398979,-0.8612849874105377,-0.06753702142893463,-0.9280186134372238,-0.6538725232136416,-0.8364708546229771,-0.02157285603651267,-0.6797183663301344,-0.4386055375262751,-0.581910379701469,-0.34731616012665784,undefined,1490102939518
903d185fccf839df,-0.1109624583094267,-0.8240595497320651,0.8360278552410694,0.8870315510197242,-0.6835063401456501,-1.996813600200612,1.9288251876852007,-0.8538955698485611,-0.21805351712020263,-0.014990512077024308,0.14722308846831889,0.05405980212121467,-0.9044535427807487,-0.5891692151862519,-0.8928639935057153,-0.2271650606294323,-0.9195325539572113,-0.5941211994070551,-0.8685162482852321,-0.06125465114973882,-0.6694614752840087,-0.4229710075303876,-0.5213813396029758,-0.3469985961574833,undefined,1490102941005
903d185fccf839df,-0.05690793967901236,-0.801165964805331,0.88579269854021,0.8588667226816887,-0.5906470677064664,-1.9876573604415313,1.9669468600713231,-0.5605229146175971,-0.20565161773605586,-0.09515970127585165,0.21802293430052705,0.07119131517350154,-0.6650999888591801,-0.5169540904157994,-0.8781271205589234,-0.26959775648276263,-0.898496005167035,-0.5411017957981128,-0.8657175243627555,-0.14014088608061756,-0.6610393939960222,-0.40352962724031405,-0.5117148806320034,-0.31670514430899205,undefined,1490102942534
903d185fccf839df,-0.05690793967901236,-0.8463661781166625,0.8819646336710454,0.9332209099796632,-0.5790345141116087,-2.0230478200820516,1.950037207039731,-0.7035682743900707,-0.2915460267879249,-0.058024620506535944,0.20692716216819748,0.017681905607190223,-0.7564895276292335,-0.515102466375708,-0.8612849874105377,-0.37062818053911967,-0.9177926892631108,-0.5636724066214044,-0.8556770998004622,-0.25176421570720614,-0.6874626077958634,-0.3713757605562457,-0.5249623430386455,-0.33833973258757727,undefined,1490102944024
903d185fccf839df,-0.17056109914352352,-0.9027196763923004,0.9011047038799193,0.9892463534244674,-0.6255464337789538,-2.0365317858358596,1.937209018411414,-0.8147757703644746,-0.2591214220062452,-0.11494521247251152,0.21677266753605312,-0.05751277900610008,-0.6041736296791445,-0.5586166285274963,-0.8781271352833909,-0.30596877189073296,-0.9068690699979319,-0.5991875542050153,-0.8417044684552696,-0.22435498158774578,-0.6947601676781148,-0.395052214353961,-0.4582463970644546,-0.3485485724027351,undefined,1490102945511
903d185fccf839df,-0.2440198039489584,-0.8833481668402985,0.690560881938913,0.7280674763399163,-0.8167781153267366,-2.0489303265843866,1.933309017779783,-0.9044369803924057,-0.2913814723244024,-0.04897045544053553,0.13187016597638582,-0.07275206148348809,-0.45185773172905525,-0.5808366738918986,-0.9086534891910704,-0.34031905756192077,-0.9148072063053133,-0.6425555533825886,-0.8462803834659615,-0.21312951477662906,-0.7159401889323226,-0.39772915791040675,-0.43535873807441006,-0.37859226226406456,undefined,1490102948099
903d185fccf839df,-0.3257947265653267,-0.8663246880527897,0.6050674331942354,0.635301964717523,-0.8765380152122628,-2.0464054315893465,1.988356117304431,-0.5477569122328592,-0.2840469059225612,-0.1541143060862602,0.1435044417230385,-0.0753052808755811,-0.5737104500891266,-0.6456450434864945,-0.9002324262979944,-0.31203055126261825,-0.917154072855923,-0.6743912608834182,-0.8487152735470551,-0.21101992752162857,-0.7335725950821608,-0.39011730209142575,-0.4136104119310969,-0.3820949160994369,undefined,1490102948503
903d185fccf839df,-0.6875445769591452,-0.836973916225726,0.6280358224092234,0.6093072000664997,-1.2118003095589835,-2.051077885988146,1.9863969006299926,-0.6275092465469254,-0.24853305541994317,-0.463936670572262,0.1723011359182109,-0.20579995993670055,0.28361046122994654,-0.7326734260685565,-0.9170745299974449,-0.07359881493318071,-0.8657845075005114,-0.7547436498136975,-0.8621211630766615,-0.005004124926474948,-0.7329569484769088,-0.3901978487260196,-0.4882579264886218,-0.4418071232824498,undefined,1490102950008
903d185fccf839df,-0.8441641831737544,-0.830516765860387,0.56997721976565,0.5516027580608598,-1.3390549531348686,-2.0535445497744145,1.9547077374674051,-0.8604296221754171,-0.25168543534518245,-0.6435537521151553,0.1951115978461743,-0.15721998411899155,0.7144468582887701,-0.8113692997332016,-0.9170745447219124,-0.055413349626277836,-0.8862983550044569,-0.8151599320420102,-0.9257711512303021,0.1194923051874454,-0.7480940517145566,-0.42106211982007247,-0.5464872690633965,-0.5556895172854944,undefined,1490102951493
903d185fccf839df,-0.7887236512451242,-0.7630099606994485,0.6465385171489434,0.6241274304773508,-1.4221839538330507,-1.9869050149224512,1.9823654072063754,-0.6449416266547793,-0.2656726893802662,-0.6684005585731382,0.24889633276141543,-0.25865024176113754,-0.35611631016042783,-0.8400701328441202,-1.0160220171505283,-0.006918817871619148,-0.8973739840641151,-0.859243553107679,-1.0042403853162267,-0.0014932816802388303,-0.8174247999171208,-0.46095574909990056,-0.5526496763476363,-0.555332702894374,undefined,1490102953086
903d185fccf839df,-0.8843586378328306,-0.7183967916142308,0.3026500543932769,0.3263130380029711,-1.4311016535354997,-1.9667384624696298,1.9346318042081485,-0.9532531095690694,-0.2638898575332032,-0.6022424140687985,0.2748594621006474,-0.20303243605819785,-0.24296735739750447,-0.8595126644437383,-1.051811551011127,-0.057433966304174223,-0.9043827300267536,-0.8820484825702009,-1.0414074443872827,-0.032336366993713596,-0.8474672868118894,-0.4536687928897743,-0.5609111018412126,-0.5273774115195156,undefined,1490102954632
903d185fccf839df,-1.0257321150197716,-0.6919811020847721,0.13485308389308415,0.15496689426035962,-1.5610717208574694,-1.9249728739382388,1.9873304834783911,-0.587966786867144,-0.25583660618196447,-0.5824454861708817,0.28468591292924567,-0.26917569311311124,0.2792585784313726,-0.8872877049607731,-1.0444431108566141,-0.06147518552760623,-0.8923983459967063,-0.8760891821268417,-1.0536448657236175,-0.038341760421594526,-0.851726401507413,-0.4475664247429996,-0.573154424060933,-0.5002555409259539,undefined,1490102956003
903d185fccf839df,-0.9841516643151843,-0.691394028630666,0.3517767598124155,0.3501712081297146,-1.4811004267834806,-1.912092181122376,1.9751886740778466,-0.6432204726244635,-0.2556666381691904,-0.6052746311578876,0.3075947236239417,-0.2693020790697169,0.40981506238859183,-0.8696968297781829,-1.0591799690789385,-0.008939378020072462,-0.8669815192215831,-0.8635309555620233,-1.0578219623002416,-0.05230814865088932,-0.8510630080127455,-0.4565034797702698,-0.5550861748933756,-0.49827144198998946,undefined,1490102958653
903d185fccf839df,-0.946729305263359,-0.6643913387170822,0.4034560167515627,0.4077906041715811,-1.4415416361615796,-1.9018994301854293,1.952664382794957,-0.778113192900803,-0.25713798472618365,-0.6430711526839976,0.3114449280386125,-0.26956537193415303,0.4141669451871658,-0.8696968297781829,-1.067601039334248,0.02136973082476566,-0.8443147488602749,-0.8579009683615252,-1.062614777506083,-0.04599478601791179,-0.8494538814480268,-0.4555068305354697,-0.5526748214327742,-0.4966905098840082,undefined,1490102959004
903d185fccf839df,-0.8996048186186136,-0.6461938445473269,0.1680296460925113,0.18353577663831933,-1.4844227070329339,-1.8507516658321694,1.9263189781754546,-0.8831350147458582,-0.2831364854570506,-0.6647750950427022,0.2793704994516947,-0.25840366635115425,1.258432208110517,-0.8567351506789539,-1.0739168273012627,0.06784366003388873,-0.8212948125278785,-0.8644239004156791,-1.0509371001651429,-0.0015086743099672374,-0.8291584503591636,-0.4628114073389192,-0.5767926936547081,-0.5280831809339904,undefined,1490102960513
903d185fccf839df,-0.6334899375597968,-0.6444327995529627,0.1629260678741906,0.16578184842920954,-1.4401016389122816,-1.8482407469365731,1.9380216245391149,-0.7961952062432295,-0.23886357456747756,-0.58910786108915,0.30508181482050406,-0.2569803283498569,0.9581522950089127,-0.82896015548963,-1.0718115597374354,0.16887405582552426,-0.8487168641605728,-0.8777357483854401,-1.0522105199771465,0.04382434982432712,-0.8224802398068771,-0.4704091672823514,-0.5961584472723411,-0.5488848731544159,undefined,1490102962005
903d185fccf839df,-0.7332829985475601,-0.5569675063768913,0.16547811112030036,0.22559771062083414,-1.4456147727889694,-1.8632573533995416,1.9446329535892861,-0.7693950860330121,-0.21051098384290745,-0.49965003707952255,0.3545193445422511,-0.12455860084258334,-0.22555982620320855,-0.874325999959995,-1.0833905129329018,0.03753462185085445,-0.8873430434609229,-0.8749745850306839,-1.0627827017256388,0.0627336405361962,-0.8186288967027602,-0.4823856762246595,-0.6230034446111486,-0.5587450106493611,undefined,1490102963503
903d185fccf839df,-0.6348760198688319,-0.6309314545961708,0.5840132034823043,0.6247396722730914,-1.3538354994010495,-1.9110859509748919,1.9651638559417755,-0.6860881787026968,-0.18653567631710635,-0.45825172953482196,0.36508814559503333,-0.20612847983563368,-0.2168560606060606,-0.8308118442835941,-1.0665484018712175,0.049658208859346624,-0.9319147025882367,-0.8538795501285179,-1.0639021916616531,0.08983490380815809,-0.8009821173309408,-0.4789292624722467,-0.6545185502695626,-0.5685955463803565,undefined,1490102965013
903d185fccf839df,-0.7568452763753425,-0.6696744590861785,0.9202450282257426,0.9088892901278377,-1.3750651777843694,-1.9233424067706915,1.9178326039695517,-1.0109144071246938,-0.1749960178943235,-0.36552831307131184,0.4912409501230602,-0.11488352197824964,-0.43445020053475936,-0.8141468199733732,-1.040232583091193,0.06582311401779618,-0.9211578133428105,-0.8539935425555076,-1.044521025092829,0.035216615171567205,-0.7993026923843062,-0.4705925262690364,-0.6779254527934117,-0.5718446735297822,undefined,1490102966506
903d185fccf839df,-0.553101183515988,-0.7178097620021131,0.9151409417335231,0.9267594851279616,-1.2519042422979687,-1.9829732595064198,1.9256142002748935,-0.9819992452846618,-0.19590952342924092,-0.3866387645217111,0.4032184536650607,-0.09202464940431566,-0.23861547459893048,-0.8104434877131559,-1.0476010232457058,-0.31203052299789674,-1.0187416145618091,-0.8375278884184753,-1.0252658018966514,-0.33394571881171575,-0.8752249992901954,-0.4585969034442323,-0.6487210881794983,-0.5481208960813072,undefined,1490102968010
903d185fccf839df,-0.4879584549836184,-0.7665320506881769,0.8041270605277476,0.8306193775307374,-1.19199005743499,-2.0082897593358076,1.8786984582974475,-1.2987635369243398,-0.21002805636294197,-0.38831902028582127,0.29993552558425096,-0.1365196967328597,-0.6476924576648841,-0.7947042883737552,-0.9949693635989554,-0.3544633319101132,-1.0135535537472866,-0.8299853527035582,-0.9767359208669177,-0.33605530376466136,-0.856076403535568,-0.45305724643000184,-0.664172517690762,-0.5250682972119025,undefined,1490102969757
903d185fccf839df,-0.4713262954050294,-0.7665320506881769,0.7971090686694204,0.7748346228576026,-1.178310079337557,-2.0087882165655775,1.8852650833075415,-1.2521978602886261,-0.2124366021589228,-0.3842529328044531,0.299265199777731,-0.08716012861824542,-0.669451871657754,-0.7947042883737552,-0.9970746311627828,-0.3544633319101132,-1.0135535537472866,-0.8294913831520883,-0.9753995299955894,-0.33828807831398583,-0.8559701482632712,-0.4532604765070615,-0.664225837014768,-0.5249097659075308,undefined,1490102971341
903d185fccf839df,-0.521222705129977,-0.8810000922338167,0.8449600066024535,0.8296667031127969,-1.1086964817972058,-2.041940278280417,1.9505999865522337,-0.8358644925024784,-0.2452981761019166,-0.4628889622340449,0.1835472256652796,-0.05902848208022621,-0.669451871657754,-0.7752617891510735,-0.965495632429839,-0.26757721046667005,-0.9957135674615432,-0.8287947594361619,-0.9491265048722818,-0.26069531140051483,-0.8330156525443159,-0.44657347487443083,-0.6545286152685934,-0.5315377347155303,undefined,1490102972513
903d185fccf839df,-0.5655752341891103,-0.8780650026292136,0.7664845497161031,0.8293701233329019,-1.170163806538896,-2.044933351036427,1.9505053094374551,-0.8514329569058261,-0.23736450369642756,-0.2304985256007025,0.18782264164508827,0.030597842640866162,-0.5737104500891266,-0.7882234488241406,-0.918127182184943,-0.2857626475088514,-0.9941142446840944,-0.8258879383823622,-0.904353912922696,-0.19033981373910025,-0.8093143341484116,-0.43695545498094746,-0.6513661461586758,-0.5297670690957748,undefined,1490102974009
903d185fccf839df,-0.4602381200084839,-0.8581064926930865,0.7811586713127596,0.7279400100154605,-1.0361411767723394,-2.0465288807700173,1.920365099991195,-1.0261836808815965,-0.2296297907483993,-0.17033379810877233,0.20019566714204662,-0.10354334687855364,-0.7521376448306596,-0.7706325995430995,-0.8602323573097409,-0.29788633344386894,-0.9910647661302867,-0.8016960940385615,-0.8613515141677289,-0.028810119499775938,-0.7576527063705482,-0.41068243704742957,-0.6252028213670119,-0.5148798174250047,undefined,1490102975507
903d185fccf839df,-0.371533234417266,-0.8833481522263023,0.9502316634360073,0.9333100774053806,-0.8672500331691463,-2.0249601265522266,1.8863695976197072,-1.2040759224889592,-0.20943309506332597,0.004047697575765641,0.2624457636915244,-0.046787951489788066,-0.4213945521390374,-0.7067500743454858,-0.817074434830266,-0.22312382727363952,-0.9433028530519258,-0.7777828985134094,-0.8266753194262143,0.060716442742265495,-0.7172368505839272,-0.3820238038926654,-0.6264117094349475,-0.43977746904873444,undefined,1490102977063
903d185fccf839df,-0.18580717641307734,-0.7994049344249631,0.7441542983811172,0.7575035111685462,-0.7476685172873605,-2.0048424868599426,1.9319809602217504,-0.8550254183725059,-0.1684945078565177,0.0860980295076286,0.28182730802858036,-0.11556454011352414,0.0660163213012478,-0.6576808652379669,-0.8118112548773467,-0.05137217279992814,-0.8841740531950979,-0.7177339277713721,-0.7931326082547017,0.1736024441415603,-0.6638175428316829,-0.32857359928573904,-0.49380993748655927,-0.26523388380313734,undefined,1490102978617
903d185fccf839df,-0.21214156710081555,-0.6731965783028993,1.0484853284112339,1.1092989248731535,-0.741486809624266,-1.9685808905713569,2.008255862635558,-0.31014131180163107,-0.0973199690136472,0.38209253924493936,0.40868203537628517,-0.048699397560340814,-0.5911179812834225,-0.5956500029327682,-0.7970744040172562,-0.031165977756242733,-0.8871228932975588,-0.631105590914884,-0.7790760149037211,0.2742004887806427,-0.6034224358557344,-0.3454459289335882,-0.44049383237493905,-0.2516225936694942,undefined,1490102980010
903d185fccf839df,-0.37430529551910724,-0.6221262296243499,1.1952283233364451,1.3426017041567124,-0.798654712591769,-1.9549758036941505,2.0322686237263934,-0.14932659510030558,-0.07892128199974185,0.4518174419553618,0.37892989466260046,-0.08059347072699831,-0.6433405748663101,-0.5345450109261006,-0.7728638159898901,0.1931213146366732,-0.7618170245771462,-0.5709616243843694,-0.7593799916435834,0.34284675736858,-0.5474997389930994,-0.3560284168926182,-0.4887834994206588,-0.15742230738533336,undefined,1490102981510
903d185fccf839df,-0.44360596042989486,-0.6685004583179281,1.700533140203131,1.6935047630360784,-0.9260122155626702,-1.9643020779424105,1.909411966993827,-0.9987261979109509,-0.08952057704772548,0.6368873281714238,0.3646059378648222,0.02517871603959308,-0.49537655971479505,-0.5076958148060479,-0.7665480648340444,0.10421468957421985,-0.7839059848392955,-0.5360797695739379,-0.7696303196146179,0.3354093070737273,-0.5381924696718279,-0.3467814898951716,-0.4768923401888714,-0.12795139644237316,undefined,1490102983016
903d185fccf839df,-0.3812352584939568,-0.7201578366085949,1.6782026347311958,1.7394270745771923,-0.895350553925317,-1.9916636510966559,1.969986915494102,-0.6197445458969968,-0.1579897038718059,0.28320910435709673,0.3279433691297717,-0.16486710209896022,-0.504080325311943,-0.4854758082939691,-0.7454953891957701,0.13048259332798673,-0.7528638616267674,-0.5370677090312244,-0.7437771030888572,0.37897151031825665,-0.5218828101976025,-0.35521571043972955,-0.4666257695107787,-0.13754520104964385,undefined,1490102984511
903d185fccf839df,-0.23986186757054034,-0.7536176915015139,1.3579209532074688,1.3742173084235674,-0.9109333873492248,-2.0020310944634754,2.0431901969871538,-0.14753693033732218,-0.16105538378279238,0.0926376355636239,0.32950659832330453,-0.14808722840767655,-0.852230949197861,-0.41974156192545475,-0.7528637851768802,-0.004898215326083529,-0.7949748682121209,-0.5190504842302875,-0.7556087097124317,0.27355375288721523,-0.5348091633541608,-0.40409094740500484,-0.5042086776519972,-0.20986001224538225,undefined,1490102985989
903d185fccf839df,-0.17610515233638652,-0.7407033615428434,1.2883776476825026,1.3025049126487216,-0.7071120120502065,-1.9852093285543977,2.0604259493145647,0.01860016281263946,-0.12143087944328479,0.28662066124878094,0.43548400861376446,-0.029622802556338035,-0.7434338792335116,-0.3910407029129869,-0.685495318843442,-0.035207239376757044,-0.8619292157500995,-0.5005456244050447,-0.7474504280100118,0.2951115775755388,-0.5179119121165878,-0.40573134460681165,-0.5638202842281318,-0.33687828698743544,undefined,1490102987481
903d185fccf839df,-0.28005621871338743,-0.7483345711324176,1.1767261368706239,1.2140085136392056,-0.7708833332966094,-1.9815104971367137,2.021076156615876,-0.24685738517554537,-0.14048350441951993,0.2772138054999055,0.38887023560736955,-0.12602929312494668,-0.7086188168449198,-0.4132607677035512,-0.707600587771344,0.20524501470405154,-0.8610042170688571,-0.5470927614083289,-0.7015583447970094,0.4808322281032007,-0.48904114784538355,-0.3871113084509939,-0.6033263965310673,-0.242489589425326,undefined,1490102989030
903d185fccf839df,0.22306705710925723,-0.7506826165109071,1.1358929366589685,1.2140085136392056,-0.7166159908243738,-1.9803249152568663,2.0128685300543796,-0.28898667618221235,-0.15527364881244388,0.41327473731268083,0.3651228195304409,-0.11393596079225106,-0.43880208333333337,-0.3891890141190228,-0.6591794706144822,0.2092862480598443,-0.882770073296381,-0.5141867866087301,-0.7013624347592222,0.43255810228874564,-0.48041263397204786,-0.38173077662706145,-0.5896613060394498,-0.19090882783156232,undefined,1490102990496
903d185fccf839df,0.14683625669657138,-0.7753372902739938,0.9196068903457405,1.0011182328080237,-0.7933267226541361,-1.9821743319161576,2.0281766312053287,-0.21572800847331278,-0.15931597118338617,0.5256273168206369,0.29139647646438893,-0.028109996759221635,-0.5345435049019608,-0.386411539206562,-0.7570743276667689,0.19110081101766296,-0.7380692685473411,-0.5273719740439436,-0.7201838574182909,0.3979577942401057,-0.5066954384041708,-0.3270206417379038,-0.5450627751999071,-0.17361024443932166,undefined,1490102991997
903d185fccf839df,-0.19689531730421309,-0.7806204544850787,0.6994930333002972,0.7634571287589917,-0.7868261624939198,-2.0010807666524966,2.0585719321113243,-0.039251193213216,-0.15617806644786827,0.46044234689908986,0.32958992105951096,-0.008590695210154398,-0.843527183600713,-0.44010997029899124,-0.8212849478712194,0.31435780654546874,-0.7492183979850278,-0.6138229872206415,-0.738102690244739,0.3850384991433999,-0.5509083745408708,-0.36926094970350365,-0.6059753342708941,-0.1432243862426256,undefined,1490102993517
903d185fccf839df,-0.26481003792760444,-0.7606618860929668,0.8009371335385851,0.7807744848339212,-0.8729483025786998,-2.0009060735222453,1.984513972349001,-0.542507099191084,-0.17696565988273508,0.39988283411651454,0.25661729607745515,-0.0174271020674551,-0.9001016599821747,-0.46788495253754064,-0.8402323485834324,0.38507916415407,-0.7033114994206573,-0.6375208639120487,-0.7361435833399617,0.40379380523925845,-0.559027444224458,-0.36942032520214096,-0.5523085194599886,-0.15086664841867484,undefined,1490102996453
903d185fccf839df,-0.24263379065074264,-0.7495085865146642,0.8009371335385851,0.7807744848339212,-0.8841288556436152,-2.003785013142967,1.980748091694016,-0.5705479038679153,-0.1738926767987625,0.40577590300632904,0.25738052697123387,-0.0174271020674551,-0.9001016599821747,-0.4725141097685782,-0.8402323485834324,0.3769968105013706,-0.7072123916054137,-0.6403960203305114,-0.7363464908615024,0.40230015574826017,-0.5600257865040827,-0.3725204417564045,-0.5546673581378209,-0.1522446754397675,undefined,1490102996532
903d185fccf839df,-0.15115694747391273,-0.7360072561718685,0.7990229740355281,0.7653727665915743,-0.8524694778346035,-2.0165515725689405,1.9557833422731024,-0.7318026280218597,-0.17309262610006199,0.47328231421633143,0.23984244180983402,0.08138277780001638,-0.9827874331550802,-0.47436578561176784,-0.8202322956837212,0.14058559192330405,-0.7066498976807721,-0.6150199152975717,-0.7376269076495433,0.24492804289680492,-0.5749397767375817,-0.36969876648714056,-0.5546376841676627,-0.2334219414708122,undefined,1490102998103
903d185fccf839df,-0.03473169240215059,-0.6397367014889859,0.9406616283315703,0.9712252529807123,-0.7227565529125883,-2.009631402779746,1.9495533373439642,-0.7248386474742737,-0.12432337619265686,0.8476464229331475,0.3065280701480649,-0.01657899499815443,-0.9392686051693405,-0.49103079049582693,-0.8328638863422182,0.09815289606997377,-0.7511133659656909,-0.6311942530842108,-0.7434902347971751,0.26776393573008517,-0.5854920084831652,-0.38474399990571695,-0.5451863630761089,-0.26342198130342803,undefined,1490102999505
903d185fccf839df,0.10248379664825756,-0.6972642297608665,1.1288749448006414,1.190722658995346,-0.5814105062644886,-2.019626168294382,1.9148398918180096,-0.9354298555231161,-0.09864113685530868,0.9299945872783931,0.411252983443201,-0.03368994674656759,-0.9001016599821747,-0.4734399282640112,-0.7991796494943821,0.1527093202554039,-0.810668424198046,-0.6046465530446303,-0.6993823375196879,0.3695168628352773,-0.5431691740805321,-0.3526853950444954,-0.5307407471872705,-0.22263337932608063,undefined,1490103001012
903d185fccf839df,0.42681125348484095,-0.7495086157426566,1.034449598831529,1.1936455233794947,-0.38219712988443527,-2.013355856637026,2.0235376688944364,-0.1480532104831286,-0.18633888103920557,0.8509597423506142,0.30184693926951117,0.04392530934701039,-0.8174158868092692,-0.4854757953431945,-0.8107586174143161,0.06986429084414589,-0.8568912960568482,-0.5982059490589627,-0.7062042283935989,0.36063195825114197,-0.5434508222971492,-0.31173685968994524,-0.5071488622382514,-0.24665202616463566,undefined,1490103002503
903d185fccf839df,0.09832582576442978,-0.7988179048128454,1.0395531770498496,1.1259464625186328,-0.5002666463750643,-2.039727503198431,1.9602619075231482,-0.6199744328985681,-0.18677399935598707,0.7055027200950664,0.3150112502753681,-0.016822950709418076,-0.7956564728163993,-0.48362406769690675,-0.8265481057374373,0.07794670102628835,-0.866381441620793,-0.5873259512343167,-0.6973392689577953,0.3650513108960808,-0.5355504761809575,-0.31241569630755867,-0.5251027989665452,-0.2700638792254346,undefined,1490103004438
903d185fccf839df,0.2951397141110666,-0.8217115043535758,0.8098692848999693,0.9022174783183614,-0.4258393443571621,-2.0371560230316965,1.960311868027588,-0.6107860385859571,-0.18618561287601723,0.7479905743509928,0.23938601525938236,0.02909585106791426,-0.8783422459893049,-0.4604782750663313,-0.8549691847190555,-0.008939448681876303,-0.8768979673627874,-0.58968180645948,-0.7158178463485245,0.30185609287117876,-0.5617575976040382,-0.2657621138916826,-0.4710649582931909,-0.22426882318402777,undefined,1490103005483
903d185fccf839df,0.15238027538402465,-0.8287556989450285,0.8060409658938552,0.8995463566363059,-0.48829409482623576,-2.0249088829211233,1.8860619216134393,-1.1112449284179884,-0.17776098768985588,0.7844755097492827,0.32578358044441325,0.04551292598068793,-0.8957497771836007,-0.5252866317101527,-0.9276008751788157,0.003184336179666626,-0.913950576947052,-0.6150009140802365,-0.8004092903919702,0.2814377560672016,-0.6038649619964293,-0.32549819182754974,-0.538164612448564,-0.36343593752600845,undefined,1490103006982
903d185fccf839df,0.17178453056986465,-0.7225058966010804,0.6886472307097548,0.8206049246061213,-0.5760413754231929,-1.9859453693926106,1.921632669450759,-0.8773659675403361,-0.10751595827303724,0.8568389636164578,0.35001285591396625,-0.049444262450684694,-0.6825075200534759,-0.5836141488043595,-0.9097061340163347,-0.12209341734964324,-0.930735345467007,-0.6058624763150032,-0.8646260207221035,0.12007744740678601,-0.6539360801543085,-0.31744339000853045,-0.49835552776717434,-0.3528606448809203,undefined,1490103008503
903d185fccf839df,0.07892150156777031,-0.7753372756599977,0.5202121223295598,0.5764712698193846,-0.7296582569497458,-2.0178652636604157,1.9260928224102334,-0.913332808457955,-0.17275232420342715,0.48788462213492,0.2620631519037074,0.03034702323372262,-0.7260263480392157,-0.6873075815981914,-0.9549693166974034,-0.10390795204274036,-0.9328003109825055,-0.6424985548519991,-0.9169061916966255,0.07214208502278265,-0.6945483394433892,-0.3674670693710047,-0.5520090132327873,-0.3880459065742656,undefined,1490103009986
903d185fccf839df,0.17871466607176287,-0.7436384219194542,0.5125559925912305,0.5381599430145606,-0.700097162584907,-2.0412135570266288,1.9812030382655308,-0.5450687270150817,-0.16252926319383953,0.31525678964014603,0.2508193311331331,-0.06139739675330692,-0.691211285650624,-0.6947142331678515,-0.9128640022320238,-0.22918564904260716,-0.9454649950878237,-0.6740936112405376,-0.9024577766674003,-0.04551743616111188,-0.7315051835866546,-0.36517360786421477,-0.5529803675804875,-0.38850269810620064,undefined,1490103011527
903d185fccf839df,0.08862369817150978,-0.7630099387784542,0.43535681146488436,0.42440423201260236,-0.6511783886542589,-2.0378058794728404,1.9797803172105028,-0.5370867524173958,-0.24827750476239438,0.13013501511153916,0.20226342849392337,0.07269540216017528,-0.6955631684491979,-0.7400800970643785,-0.9549693240596371,-0.3261747690813676,-0.9764943912957017,-0.6991087399787657,-0.9272544744693979,-0.14905658367850008,-0.770606395541091,-0.40067395262116545,-0.6056305055844259,-0.4492793814764835,undefined,1490103013008
903d185fccf839df,0.008234823358766937,-0.8029270171066932,0.4085601032437822,0.4567367045474549,-0.7023805873634562,-2.032779382008129,1.9564223756108332,-0.6989308356683919,-0.2688232416453343,0.09564661503697593,0.21442829467141997,0.0313482018910517,-0.7086188168449198,-0.7086017242871262,-0.9465482390798599,-0.37466939976255165,-0.9807307236529399,-0.7201467787255718,-0.9066488661194964,-0.09109683530138618,-0.7665882079897002,-0.41366291310371184,-0.5860377929540209,-0.4353415717615938,undefined,1490103014637
903d185fccf839df,-0.08324219234511165,-0.6503029787621689,0.4544968816737583,0.5114403087527871,-0.7265005485250835,-1.9927420884477065,1.9213591772231926,-0.9033238794159871,-0.2396378331100435,0.09265049411970915,0.2336778267288575,0.09972128297351872,-0.499728442513369,-0.6521258700853345,-0.9254955855282869,-0.344360262652992,-0.9805035608781656,-0.6781023658285398,-0.8705383249586341,-0.1461000832836471,-0.7441067164781567,-0.41549969335643766,-0.5784947937168123,-0.43429605040966485,undefined,1490103016117
903d185fccf839df,-0.0014673387395627991,-0.6526510533686506,0.4168541167251643,0.45665017657255974,-0.751083371924971,-1.9753100616320538,1.8915319107227795,-1.101194868954117,-0.15218968716836023,0.26030589466312404,0.31748888050773527,0.09910272636854314,-0.5214878565062389,-0.6382383919168343,-0.9139166470572881,-0.29990686532760075,-0.9397236436641594,-0.646019673690392,-0.8371075628957236,-0.12084663030159681,-0.7066408159370204,-0.3982498570050696,-0.5081888059097426,-0.39913301533042095,undefined,1490103017484
903d185fccf839df,0.14960824878759313,-0.8087971890089014,0.4532211141876528,0.5084736123305882,-0.6618549460972094,-2.011902410303642,1.9509444902822104,-0.71615960501226,-0.160153287584831,0.37417112568852157,0.28321827534971883,0.03802003839030139,-0.6085255124777184,-0.6900850694614267,-0.7960217665542255,-0.13017579926706419,-0.8920958330653379,-0.6602687965991041,-0.7511447468321704,-0.10923620119656445,-0.6679587317038915,-0.4397118821495229,-0.48562363377526935,-0.38843193523949,undefined,1490103018979
903d185fccf839df,0.07060542177847579,-0.8099712190051441,0.4162162329821116,0.47493887153143394,-0.5213317508990636,-2.026192294130638,1.9955749356685524,-0.3974852552941591,-0.2338649303016654,0.2673374613784144,0.24922911550841417,0.00018560636407465372,-0.5911179812834225,-0.6984175848542308,-0.7697059624986685,-0.16452619799713813,-0.8952224072671192,-0.6876904430544113,-0.7805173583113403,-0.11056046728954799,-0.6896047723677105,-0.4416215416594247,-0.6032220855777444,-0.4830496652122674,undefined,1490103020529
903d185fccf839df,0.017936916446277203,-0.8070361001725487,0.4449265924323719,0.4683286515792817,-0.3731868565000129,-2.010963728692376,1.9731242872628199,-0.4934897183875902,-0.23380870682631777,0.2772981236076601,0.2823402951087688,-0.07192185793631381,-0.5911179812834225,-0.7243409301019141,-0.7539164447266122,0.04763764871089331,-0.9401187399501746,-0.6328471499223303,-0.7700711190974575,0.03703363036107349,-0.6403933617833822,-0.4255757501462591,-0.62776620087397,-0.39245979701475797,undefined,1490103021982
903d185fccf839df,0.2216810783164512,-0.7313111361868974,0.5336102223031615,0.5416714451988124,-0.4482724475435269,-2.023893334846385,1.9292538629338847,-0.795065142934362,-0.20665105629428604,0.4863330469285128,0.3063393822484991,-0.05731751689004851,-0.7347301136363636,-0.6752717274697826,-0.7749690909159512,0.023390361635022814,-0.8771331849456359,-0.6222394693069921,-0.7723310889983902,0.14469956373513143,-0.6252793407751398,-0.35257986061140745,-0.5254005772606175,-0.3217067453797617,undefined,1490103023492
903d185fccf839df,0.32701812348625814,-0.8093842040070228,0.4091982411237844,0.467107633750197,-0.4441375933690299,-2.019798531700677,1.857873036812422,-1.2748767131773926,-0.09560547697640592,0.7016064325084604,0.39500598615781146,0.0005800602842480564,-0.9088054255793226,-0.7197117793462638,-0.8518113017788989,-0.02308362410354333,-0.8900389994215532,-0.5923669741246874,-0.7582814928008418,0.19745463893801843,-0.612956572269818,-0.33874042203557325,-0.4342046665647911,-0.3476255622578253,undefined,1490103024981
903d185fccf839df,0.2715775570522183,-0.7612489157050844,0.5399905845553854,0.6398676431998505,-0.38563255213513764,-1.9757898861948093,1.9176222270251124,-0.8431987133564829,-0.11847673760407049,0.5960211083841375,0.4134509181546111,0.07216297442679474,-0.6563962232620321,-0.603056667453203,-0.8044428073606,-0.04531035103096051,-0.8618841199664582,-0.5982376131959999,-0.7579946229615431,0.14643958438188917,-0.6141065485846453,-0.32883102110781737,-0.5092915605311261,-0.273648111428127,undefined,1490103026514
903d185fccf839df,0.2798936368415128,-0.7313111508008936,0.5795470007331376,0.643794413131958,-0.17822146911583625,-1.9787293857153587,1.9675122793387467,-0.4627228453672698,-0.1383333980910016,0.7373048758812836,0.37080116176308275,-0.033091828351298425,-0.8304715352049912,-0.6317575523672199,-0.8381270883818388,-0.04328976261778566,-0.9173607842417226,-0.5952737968062668,-0.7843725990857592,0.07114118531488473,-0.6281413387923964,-0.35684032345982414,-0.506442912856658,-0.2907276697615388,undefined,1490103028007
903d185fccf839df,0.3491943707631199,-0.7183968062282269,0.6548325306303255,0.7592530907202348,-0.16888205405234613,-1.993138059601293,1.9226214902183953,-0.754886418683741,-0.17500905592778493,0.917549668941307,0.3165072300452438,-0.040645936980526154,-0.7260263480392157,-0.5725041325975455,-0.8002322722329452,-0.04328967782362105,-0.8944881419903247,-0.6180217292663189,-0.7754096848298666,0.17819117703433307,-0.6174317800548743,-0.32291145326831605,-0.472820774823641,-0.2340763427433465,undefined,1490103029512
903d185fccf839df,0.4046351097242084,-0.7272020165860515,0.8066793579108068,0.8800019773510893,-0.06097480035419198,-1.9961497661106744,1.903773677795466,-0.8449406208078678,-0.14555558569601032,1.075201590042903,0.30704375129420175,-0.016695935506427197,-0.5301916221033868,-0.5539874907226204,-0.8002322869574128,-0.1079491571338116,-0.9305233384478221,-0.6765001306075431,-0.7751508030721119,0.07697719525051484,-0.6505453642138479,-0.3714501188381562,-0.5724547988433121,-0.28691212137056,undefined,1490103031008
903d185fccf839df,0.35889660187226907,-0.761248886477092,0.7594663037208265,0.829322292936098,-0.12039527335173907,-1.998951841288874,1.8781646202408282,-1.0336486730952577,-0.16958703447374293,0.9289217937156398,0.29878292460292577,-0.01563122811609309,-0.5301916221033868,-0.5928725280203074,-0.8518112723299637,-0.31000994871708265,-0.9457504572136859,-0.6555634180792455,-0.8130245408430475,-0.02320509133459304,-0.6690745520394333,-0.42607910581217323,-0.5868474092697015,-0.37517696850026544,undefined,1490103032622
903d185fccf839df,0.3949330166366981,-0.8269946539506644,0.5954976522267478,0.6663518899359828,-0.18575059722744294,-2.0111244453208963,1.9411090242806528,-0.6559313445996653,-0.21958673754691826,0.5749563505386542,0.26643240507640165,0.04351184547765425,-0.6476924576648841,-0.5650974939786598,-0.8128638776159097,-0.3160717422213287,-0.9105572241735188,-0.6551771090353711,-0.8028371846103316,-0.008299394015542694,-0.6663611150015902,-0.3893346997284525,-0.5446430400417318,-0.38292091429159736,undefined,1490103034004
903d185fccf839df,0.21336486050551776,-0.770054126062909,0.6484521683781016,0.7211042301196379,-0.15068665419882835,-1.981703825384852,1.9514862277006781,-0.5521791760391663,-0.18650476641920408,0.6961040481453837,0.37547307513357797,-0.025533519315434784,-0.6041736296791445,-0.4345549039170988,-0.7939164916281644,-0.3059687153612899,-0.871003425327511,-0.601898051612976,-0.7826164018190259,0.02489965366661089,-0.6259211108896701,-0.4104269784827018,-0.5147394109129172,-0.33571487836772057,undefined,1490103035537
903d185fccf839df,0.43096922436866875,-0.6990252674482326,1.1167528664500945,1.131180894082273,-0.21925110803657713,-1.9539765619280034,1.9247779164883232,-0.7249822153872338,-0.14074382047458667,1.1709667026040076,0.46152440575477144,-0.019094140751200996,-0.7129706996434938,-0.5141766478802751,-0.7528638219880491,-0.2008971286109439,-0.8933799699536117,-0.6164131583942152,-0.7678391363299245,0.050014520828117,-0.6215000729422808,-0.4583177685415712,-0.54026523323908,-0.35557892801542945,undefined,1490103037002
903d185fccf839df,0.4420574687760337,-0.662043307952589,1.1984182503256076,1.2557418674879839,-0.12849011796128482,-1.9497280301165165,1.904588898013804,-0.818461434091993,-0.181165927388237,1.3069287700728183,0.48014632757122466,-0.059889629406127305,-0.7347301136363636,-0.4539973966643932,-0.7581269945787347,-0.10794918539853314,-0.8720419561083902,-0.5801317238394333,-0.7693714383706964,0.09898157698382581,-0.5983440576412401,-0.45336899399301206,-0.5532827279339191,-0.3384824660775573,undefined,1490103039348
903d185fccf839df,0.45730368406722643,-0.521159533035502,1.2941198720547242,1.404033030020747,-0.09880559606420097,-1.9240668007572859,1.9039998199429036,-0.7890181304310436,-0.11254889636981748,1.3623541713606049,0.5007991626684148,-0.0324978214266039,-0.7086188168449198,-0.45307159759512206,-0.7612848775188913,-0.029145445872510955,-0.8637995877424064,-0.5839948196598157,-0.780076559458558,0.09648702968311515,-0.596795490533888,-0.4834356208751801,-0.5855867513215103,-0.36387791402526354,undefined,1490103040004
903d185fccf839df,0.2286112828291689,-0.6831758186569666,1.1448253421573023,1.1832274109840282,-0.2227482459358926,-1.9523647276956624,1.901604074748892,-0.857281267097888,-0.21941702114995693,1.3799383397537412,0.2379983627727303,0.010807941325375946,-0.7782489416221035,-0.5336191341521822,-0.7749691203648864,0.06380255386934287,-0.8104949992436592,-0.5980729548443612,-0.7941191595425746,0.1616840499105111,-0.6015583715583998,-0.44268143831040574,-0.5454958246084293,-0.3055662200817129,undefined,1490103041501
903d185fccf839df,0.2577175620916997,-0.6913940870866507,1.009567050113484,1.1211720208147928,-0.2659276040919015,-1.9596016739238025,1.8694757370266804,-1.077188890020317,-0.20688084880578447,1.1203666889802657,0.11778479698473465,0.036951828266665265,-0.7651932932263815,-0.570652482655905,-0.8076007197496918,0.10623533451683777,-0.8636709775812297,-0.6028923242187966,-0.8071822049599661,0.14663976959800157,-0.6043491854024333,-0.4920531575816514,-0.5983186138403678,-0.3605040202085139,undefined,1490103043020
903d185fccf839df,0.27296350133961456,-0.719570777768485,1.1090967367117652,1.140549474111487,-0.36020630892000816,-1.9346089372602457,1.8545279215690555,-1.1725220215223968,-0.20459479375142445,1.139220572296482,0.03093522837133837,-0.021791666026710996,-0.8348234180035651,-0.6169442039001886,-0.796021751829758,0.09411160618473792,-0.8944187992002977,-0.6523019525393952,-0.8599031739186477,0.17129268295186265,-0.6413974790115433,-0.45593736776308824,-0.6017169110440133,-0.3947066728390164,undefined,1490103044510
903d185fccf839df,0.5335343464582734,-0.6837628628830803,0.9776662554001622,1.0641089606302854,-0.3393469179186692,-1.9284504290776454,1.8981616635862624,-0.8649083910880319,-0.21676367102374144,0.8821532813960204,0.014074743938904748,0.034337090970730046,-0.8391753008021391,-0.6595325346057692,-0.8297060107642954,0.21534815462297655,-0.9066426014218179,-0.6912432240587881,-0.9092027029275209,0.20131964976817193,-0.6666405881207697,-0.4529002889922263,-0.6303549490006543,-0.42995743354038174,undefined,1490103046021
903d185fccf839df,0.6901540561891117,-0.7277890169701767,1.1671558476292374,1.1905253541192415,-0.22824081862516207,-1.8928736287847765,1.9063824302611416,-0.7319937505545038,-0.22396423279974495,1.1080377586395815,-0.011488240357987739,0.0215210539339444,-0.9175091911764707,-0.6215733740820008,-0.8781271131966896,0.20120383787770182,-0.8691043830403489,-0.6270398400109586,-0.9391910348343242,0.18197920168183224,-0.649450130646009,-0.45201123469055837,-0.5444023902675028,-0.4695682750685269,undefined,1490103047517
903d185fccf839df,0.3117719427004751,-0.6820018178887162,1.1894860989642233,1.2870283429314928,-0.35928060016758295,-1.9230116544669693,1.8604370920469118,-1.1102656791943029,-0.23601951016706776,0.996402444256808,-0.002977782631694737,0.011603321231000977,-0.8739903631907309,-0.4771432605242286,-0.8244428455358437,0.23757482502095065,-0.8155644177596706,-0.5670351990884563,-0.9020589582578008,0.30314956654275665,-0.5866526877484842,-0.43288710688576953,-0.5060657413440419,-0.41965766585192604,undefined,1490103049008
903d185fccf839df,0.08169366618584074,-0.7078305070340496,1.288377901819452,1.3738192811760772,-0.32755951389382953,-1.9153368109483,1.8857779012680829,-0.9243954353901177,-0.2299206754427182,1.3599525642899506,0.0032774361979341954,-0.08386593643621076,-0.9697317847593583,-0.31789986972868517,-0.7939164916281644,0.2153480415640904,-0.7814401230574181,-0.48768974743328586,-0.868159409658173,0.4301713434465058,-0.5196597551164994,-0.3946490059814291,-0.41667666664244235,-0.3202870900222589,undefined,1490103050509
903d185fccf839df,0.3187022162240123,-0.7324851369551478,1.0720921096431735,1.2212852139293893,-0.3443663372012145,-1.9601117759951128,1.9281151475589082,-0.7009974994979272,-0.2963910458784968,1.3172730182674446,0.01779882787859902,0.020398455715924246,-0.7260263480392157,-0.27345981785220397,-0.7518111845250186,0.35679064372240676,-0.8338493850360417,-0.451477974732972,-0.7730727502295046,0.49025607526239856,-0.46255658498400626,-0.40031138890700735,-0.38839826501547503,-0.23462374300091582,undefined,1490103052018
903d185fccf839df,0.28543782805601475,-0.6767186682916275,0.814973371392189,0.8538099351668789,-0.30626810833489454,-1.9385546681093193,2.050461608277983,0.11944666438301246,-0.268731474513673,1.0320682876495613,0.0966266982821803,-0.047203469263999216,-0.7738970588235294,-0.2493881354969356,-0.7781269885805755,0.4133677411151764,-0.7581110278620931,-0.4267034995874613,-0.7295805738323135,0.4659419295392298,-0.44928007175921186,-0.4078457671408524,-0.28962710184896934,-0.2097243923554867,undefined,1490103053509
903d185fccf839df,0.28266559442712486,-0.7453994669138183,0.725013465761395,0.806921704527006,-0.4092999333266498,-1.9522948493367276,2.0061756781443574,-0.21826516382909936,-0.17392579099597164,0.9942043075286134,0.19946244584768796,-0.03715037732293616,-0.7303782308377896,-0.36419155859603236,-0.8033901698975694,0.33860517841550386,-0.7698095186115027,-0.5254784233861035,-0.7472335277353406,0.4224105238856331,-0.5110204696500547,-0.3495456143696668,-0.31864429146594775,-0.2087962645466338,undefined,1490103055100
903d185fccf839df,0.18841662113763422,-0.6015807046901014,0.890258393015478,0.9411410004030405,-0.33943947771302535,-1.9206055504197042,2.0643601347724183,0.21416528077450617,-0.11150795522072762,0.893559513929027,0.39100057022034307,-0.10013554703333621,-0.4866727941176471,-0.4354807547894681,-0.8528639245174618,0.32648153487756865,-0.7636041956419722,-0.567389844172467,-0.7769070031588104,0.3851154884762347,-0.5474123512848672,-0.36479781230966296,-0.3409131531180572,-0.26366353368847184,undefined,1490103056500
903d185fccf839df,0.07199150408751101,-0.6444327995529627,1.0350872284376322,1.1511723633674276,-0.3563594547007023,-1.9325592070393733,1.9548734323697243,-0.540395548637064,0.007008538550868428,0.7788637386413351,0.5375985912306855,-0.2766699210754519,0.2531472816399287,-0.5576908165074506,-0.8697060797525489,0.23151289019309687,-0.7912378138187602,-0.6353866603646477,-0.8272700480938153,0.2782040826715669,-0.6087011942143187,-0.37781595014114194,-0.4358246327193308,-0.3212840648397434,undefined,1490103058021
903d185fccf839df,0.11218582072494836,-0.5546194463844057,1.2150062772883716,1.3179996236769673,-0.2692807404342099,-1.9106177739174717,1.9009702905428705,-0.840647674636547,0.13755908436543143,0.9718715382930097,0.5713986755153126,-0.2703949525814786,0.3401849376114082,-0.7058242428992783,-0.9276008604543482,0.5891605441505159,-0.7064597249229714,-0.7173032865050496,-0.9018700456731816,0.5013429596858602,-0.6168429680936477,-0.48220075077125085,-0.4936042541512659,-0.47462445109864393,undefined,1490103059499
903d185fccf839df,0.14683636021280058,-0.5916014351080416,1.4153421803818884,1.4695303480354844,-0.23206709108969226,-1.9096441524653205,1.8826405384033007,-0.9582690422081728,0.05812418561062578,0.7479981575893533,0.5455860803955497,-0.2622379065807101,0.10953514928698754,-0.7224892348325628,-1.036022047963538,0.5689544904304382,-0.7688783949596437,-0.7497026276763132,-0.9679759148115594,0.6231292655148165,-0.6215041900289673,-0.5059462791534465,-0.526712143300012,-0.4859221814216613,undefined,1490103061002
903d185fccf839df,-0.26481007243301413,-0.4806554543231378,1.4229983101202177,1.515626785581727,-0.3844188334549237,-1.882799670117536,1.932854052876637,-0.6546600189428541,-0.10553417093868629,0.323039626513631,0.6904346404157957,-0.18235712160660095,-0.051484514260249546,-0.6974917339818614,-1.0191799074529186,0.3891203409804197,-0.8537548689349024,-0.6931114412310889,-0.9697391109812044,0.5934872565363986,-0.594839292321426,-0.5474540396245718,-0.6783731848463301,-0.5028897225744956,undefined,1490103062520
903d185fccf839df,-0.32718080887436196,-0.5053101427002207,1.4293781640985428,1.5752409426025467,-0.5089272023692171,-1.8991858678362235,1.9607694423075224,-0.5166246751376664,-0.22306882169437597,0.23561494625403173,0.610990149034421,-0.1686291866649387,-0.5911179812834225,-0.6586067096349489,-1.0307588900973204,0.29819301444590535,-0.8601187398456974,-0.7004196582126526,-1.004520257476026,0.5690037293537877,-0.6191688702523602,-0.5231061045040585,-0.6444688930813939,-0.4625861688616167,undefined,1490103064022
903d185fccf839df,-0.08740026674516865,-0.4741982893438025,1.383441639805516,1.5118935832840494,-0.5919224936671134,-1.8855062455205922,2.082703030167936,0.29048995443325365,-0.16242798431929847,0.40696031730378124,0.6080939876208018,-0.27932529138614903,-0.27778241978609625,-0.6400900289077003,-1.003390441216499,0.15877111375965,-0.9231707165060833,-0.7230472661270008,-0.9517503093853471,0.29729815660005227,-0.6656340219548685,-0.5440601602626809,-0.6441370971128645,-0.4813781723502933,undefined,1490103065507
903d185fccf839df,-0.026415543602036608,-0.5334868479960512,1.4140661587588335,1.4924254814379194,-0.5513762699199021,-1.9186443320148587,1.9601119914416112,-0.5360837853022418,-0.26341372776547795,0.4237853061984388,0.5494226450967239,-0.2801102185416749,0.9363928810160428,-0.5937983529911277,-1.0118114820228734,-0.006918832003979916,-0.9729463092546716,-0.6861578692061926,-0.9481609449040127,0.11729032995222895,-0.6940453857816886,-0.5097998258008113,-0.6244233363857251,-0.5055358848983473,undefined,1490103067024
903d185fccf839df,0.3034558629111806,-0.571642881329926,1.3164503775266596,1.3072954498618539,-0.4182690609781513,-1.922133532696185,1.8752586816521293,-1.0551872626165606,-0.20842267057698385,0.23874726795999343,0.53015525598231,-0.4388747868052385,0.6926874442959002,-0.579910861871853,-0.9412850885758758,0.1102764548137444,-0.8374664386754324,-0.6640115645240997,-0.9269606079537979,0.3398440592545595,-0.6370504747161343,-0.49240656685131695,-0.5500904213868026,-0.4108023231540288,undefined,1490103068503
903d185fccf839df,0.2535593841754135,-0.6297574392139242,1.3757852559302373,1.4547685169075537,-0.4191022050529484,-1.9433878405623126,1.912483583724496,-0.8350368305323457,-0.23366379381519933,0.1813127648799193,0.3828084618345597,-0.3047106887446471,0.11388703208556152,-0.6465708814080894,-0.949706173555653,0.48408898566489145,-0.7218228993755538,-0.7154667313824628,-0.9239239929692302,0.5174805216149817,-0.6197041481762184,-0.4686030729058317,-0.5539755990921421,-0.3177019063162977,undefined,1490103070006
903d185fccf839df,-0.1941233252131913,-0.6379756638016197,1.2877397639394499,1.3250188989550566,-0.6401521252300104,-1.945498130103592,1.944033360494618,-0.696173505754485,-0.19681704498779004,-0.1323650442594819,0.3069480339201018,-0.25208980114485435,-0.012317569073083769,-0.7123051018750546,-0.9360219233474241,0.4941920690543734,-0.7655376257212941,-0.7106853598361916,-0.9281710579665913,0.5439812429028503,-0.6151358828491196,-0.4683354249901799,-0.5825819369592797,-0.29936214189867644,undefined,1490103071524
903d185fccf839df,-0.48657240717999295,-0.6626303229507104,1.4472427209582606,1.480027741071978,-0.7158651409761375,-1.9386757877771439,1.9865888809966865,-0.45144529156978774,-0.19782770138001926,-0.08029385330362764,0.34404535224012645,-0.35296183670791537,0.16610962566844922,-0.7113792510026852,-0.9023376938618218,0.449738615199539,-0.7171755721952118,-0.6737959646483599,-0.934922981190515,0.5435500888131832,-0.605249405348333,-0.456382032393831,-0.5745185895965224,-0.30315878227344023,undefined,1490103073007
903d185fccf839df,-0.2842142586080347,-0.6097989146638009,1.5206140913523916,1.5464168684032764,-0.5898447825812689,-1.9042636074719343,1.9172856048491134,-0.8395982821148531,-0.15179957213346065,-0.11577722645887571,0.43521634595277947,-0.25164345198563,0.9712079434046347,-0.7048984114530708,-0.9739167284529671,0.5447071468251247,-0.7281300258938773,-0.6625866542729362,-0.9738392438615974,0.5697428438711257,-0.6061835654758841,-0.46178154423358336,-0.5457281622875495,-0.2748491269882582,undefined,1490103074631
903d185fccf839df,-0.18442123212568104,-0.6796537578962306,1.1371692124189727,1.1679986560968452,-0.5646345390739651,-1.91295167076117,1.9467368047403772,-0.6398176637678438,-0.15539659266679062,-0.18008963725706967,0.3584048935836545,-0.27122246322829446,0.24444351604278078,-0.6974917469326359,-1.0212851971034476,-0.012980540714061396,-0.8590389222984031,-0.6812435072988394,-0.9927166398943742,0.18887769684128736,-0.6982915244949857,-0.4729578195544952,-0.5792330068716148,-0.3623508348669508,undefined,1490103076099
903d185fccf839df,-0.23570372415966387,-0.6737836225290129,0.74479218212417,0.8085483134395601,-0.48344953403177093,-1.9361252718044246,1.893049313082673,-0.9919485602967104,-0.18163164964151945,-0.18896481340317883,0.24111978929524194,-0.08569695875256658,-0.5214878565062389,-0.673420051626593,-1.0149693944119653,-0.34436029091771353,-0.9146003370232255,-0.6624853290178077,-0.9858387742153627,-0.13547515549491546,-0.750786690402269,-0.48181018802146514,-0.5170316193637471,-0.5127937542066863,undefined,1490103077519
903d185fccf839df,-0.4144996466619543,-0.7847295448579321,0.7097014604216858,0.75833248620381,-0.47768953938510733,-1.9999534138109711,1.9390840619958627,-0.7532493380011531,-0.22554626842667466,-0.2917719429328379,0.09554613398295858,-0.11424737118795157,-0.852230949197861,-0.5965758667559121,-1.0486536533465027,-0.3867930009034046,-0.9726303113585193,-0.6473495938669175,-0.9916251363210099,-0.23955324405266334,-0.7604687575531576,-0.48393570100254957,-0.5057100756953452,-0.5358708602435485,undefined,1490103079006
903d185fccf839df,-0.10126029621109697,-0.8434311031260556,0.6516423495042135,0.7172580343100395,-0.5864402102498136,-2.029234279580591,1.918802996733789,-0.9254093399260659,-0.25665193388729446,0.22386629852348194,0.0677044736795286,0.05054132799922558,-0.8391753008021391,-0.6215733999835498,-1.0254957175066348,-0.4029578919294934,-0.9781896362311119,-0.6051721878127873,-0.968136841749225,-0.22226079276472935,-0.7332920607895687,-0.4858480340454549,-0.43166622372410923,-0.4797915250464102,undefined,1490103080524
903d185fccf839df,0.02625296173016198,-0.8510622688736413,0.8998286822568644,0.9417261690996379,-0.6045636110362737,-2.0133651724685797,1.9672124775538038,-0.5947447849308187,-0.2675739888196798,0.4845477042069998,0.11403980985223496,-0.04835021677936243,-0.6172292780748664,-0.6410158538785206,-0.9602324672013874,-0.37264881134937683,-0.9793259317338057,-0.6102828727514091,-0.9405833999602177,-0.23206960289095863,-0.7274066180970749,-0.4625725597475981,-0.45262476258952666,-0.48582087441610816,undefined,1490103082007
903d185fccf839df,0.07892157057858977,-0.8228855635778108,0.6069815926972923,0.7583481686541785,-0.7001691672354189,-2.0302032429198986,1.928328174209725,-0.87838382980492,-0.2461972380772325,0.6412689746990291,0.14479864310966978,0.11312196626604577,-0.36917195855614976,-0.6474966934281351,-0.8665481600012233,-0.3059686870965683,-0.9580704112986248,-0.6081613364866029,-0.9113717143176421,-0.1315331528144754,-0.7005502198274481,-0.4550041759050288,-0.443649919793131,-0.43583094499895814,undefined,1490103083505
903d185fccf839df,-0.06522401946830687,-0.7712281999011402,0.88579269854021,0.9027956522203328,-0.7039440172103186,-2.006389101678402,1.926555684580184,-0.8841747784881653,-0.2287531806309636,0.5617479035149749,0.1933389023675873,0.06574806471569193,-0.673803754456328,-0.6474967063789095,-0.8623376322358022,-0.29788633344386894,-0.9534795093763002,-0.5891308408467734,-0.8960696889854025,-0.08016393798446259,-0.6821412466813741,-0.4320296997117468,-0.42802259038391993,-0.4006996726803426,undefined,1490103085033
903d185fccf839df,0.15515240549668535,-0.768293095682541,0.862824309325222,0.8952546507879088,-0.722077699938839,-2.0192744528173128,1.8847207218469801,-1.1671188283156175,-0.21855504939548503,0.46647312897183923,0.18185086022771452,0.06654511113829507,-0.7303782308377896,-0.6410158668292951,-0.8928639493323126,-0.2837419884338727,-0.9214211329475229,-0.6113911370589162,-0.8597982218166682,-0.025869018600429176,-0.6754307593821142,-0.40473917897769135,-0.5223790382689213,-0.3743120931796507,undefined,1490103086501
903d185fccf839df,-0.052749761762726166,-0.7230929115992019,0.86729000380049,0.8072459500237165,-0.6829817653375787,-1.9730926275402323,1.9045678669187471,-0.9759591440557167,-0.22884821900458377,0.4656975252239301,0.14487071522661943,0.02710346271658768,-0.9001016599821747,-0.6224991861020465,-0.8665481379145218,-0.01904241901247209,-0.8199891493547444,-0.6157925332358303,-0.837464401131291,0.12275678147816271,-0.6401727620708381,-0.3875368972134494,-0.550445741534955,-0.3017364992701011,undefined,1490103088010
903d185fccf839df,0.09000967696431579,-0.5252686526363479,0.39898981400239586,0.5457190833360348,-0.6104984644590931,-1.8876025612660667,1.8964312602398359,-0.8887023126609015,-0.2129802336106086,0.24288531768892357,0.07684688449988507,-0.12982371670833506,-0.7347301136363636,-0.632683351436491,-0.8770744830958928,0.09411162031709869,-0.8372071376799446,-0.6316565572252104,-0.8627998537806357,0.043039029295038826,-0.6672251335786971,-0.39632022603499784,-0.5543244193545134,-0.2786982676645157,undefined,1490103089530
903d185fccf839df,-0.005625309623390587,-0.49591787350228617,0.44939279518153874,0.5487488637947141,-0.4893638081744597,-1.8473789287458022,1.9172908759787803,-0.6850367068167437,-0.23707397641845082,0.11611932236057676,0.022680669958644203,-0.014649378170476993,-0.5780623328877006,-0.6299058506224812,-0.8939166088820446,-0.02914547413723249,-0.8653314033501976,-0.6441197898341879,-0.8445311818478632,0.032275515955009215,-0.6730149830309516,-0.39119303453692816,-0.5728974367337412,-0.31910674166851544,undefined,1490103091008
903d185fccf839df,0.05258731791249048,-0.5669467613449549,0.45130644641069695,0.5935666938401829,-0.4792632533906073,-1.8885086346218878,1.9207832633586766,-0.7192346149106807,-0.2220317513117342,0.06952198224189057,0.035796839576023386,0.003636773523656484,-0.6302849264705882,-0.6484225443005044,-0.8781271058344557,-0.1321964442096821,-0.9134936654149436,-0.6518649800512983,-0.8620092145614142,-0.051584420732165216,-0.7011566080769699,-0.38454297819312017,-0.5077823287553859,-0.32629719642446087,undefined,1490103092558
903d185fccf839df,0.05951731539274977,-0.7318981219570264,0.6860949333266956,0.6821529498074361,-0.5158906202625205,-1.9192778839404898,1.933766609867588,-0.6887206341230456,-0.26444187653546536,0.4433967807457086,0.018572096732951224,0.1442161122755131,-0.44315396613190733,-0.6363867031228702,-0.8791797506597202,-0.04531033689859974,-0.933889425406981,-0.6618013695836028,-0.8626179369792268,0.033522786966751865,-0.6900902359060043,-0.39316520250414033,-0.4882685562824948,-0.3164994110613808,undefined,1490103094157
903d185fccf839df,0.06506136858561277,-0.7782723944925931,0.7671221793222064,0.8385143517931501,-0.6191693033995679,-1.9174564190306838,1.9500740321446353,-0.5986893954254066,-0.2562175819432552,0.5392808681314074,0.018731018318176668,0.05622159551308291,-0.9349167223707665,-0.6289800386024355,-0.942337703952205,-0.1645261697324166,-0.9853799084013496,-0.6483818612335894,-0.871056090743573,-0.05478730013130389,-0.7063769667448558,-0.3761805100408849,-0.4570055575193312,-0.3566883156361482,undefined,1490103095509
903d185fccf839df,0.14960835230382236,-0.7753372902739938,1.202884198937825,1.2253183430645764,-0.5803407950528215,-1.926095568278677,1.9061904561795777,-0.8738909489940743,-0.3007051243511265,0.8420890389261279,-0.015247929084541874,0.01717880459469174,-0.6868594028520499,-0.6243508489944615,-0.9381271909112515,-0.14229948520208172,-1.0184327762071927,-0.6545881475101866,-0.8480995538718202,-0.07883967112412718,-0.7012104952801931,-0.3979385677864832,-0.5203555732755698,-0.3651573907859741,undefined,1490103097020
903d185fccf839df,0.1870306423448282,-0.701373312826722,1.2379746665033597,1.2769434716911143,-0.46586098426595046,-1.9195667106871435,1.96085623577328,-0.48004265720812056,-0.278967447813372,0.8219752307655319,0.0005740249578555863,0.012830685522565683,-0.7042669340463459,-0.6206475491111805,-0.9244429627897239,-0.13219647247440364,-1.0119603251412927,-0.6318782113058857,-0.8397313676901736,0.0287954647263096,-0.6708644783849141,-0.4017995123181869,-0.47441707067097205,-0.3716224935639809,undefined,1490103098504
903d185fccf839df,0.07892150156777031,-0.5405310718154963,1.2864639964533444,1.3728648413190505,-0.4237719138650267,-1.9082023525953111,1.9389552105300787,-0.6003808892046345,-0.3547645389611117,0.9388632478142449,-0.022095675359576187,-0.001989929417547525,-0.7303782308377896,-0.6326833643872656,-0.9507587815697485,-0.0473309677088569,-1.0084111931344173,-0.6211058736344888,-0.8474208630271538,0.11433383002855682,-0.6576031439971657,-0.39872461406677473,-0.4249938947417246,-0.3429217210829083,undefined,1490103100020
903d185fccf839df,0.19534675663953244,-0.6743705936851458,0.7371357982488912,0.8451318234135574,-0.3723537123391936,-1.932983128328312,1.9834226060066316,-0.3269280731628109,-0.3776449553423913,0.8914549020530292,0.048968797791417856,0.030951833428114646,-0.7521376448306596,-0.7308217437499795,-0.9086534891910704,-0.07157822652000585,-0.9884259031700422,-0.6640938951006954,-0.8209869121957099,0.12226403102194704,-0.6634935425793973,-0.4272333163285585,-0.5010559849947972,-0.3790120026460952,undefined,1490103101562
903d185fccf839df,0.20089074082157599,-0.6878719824839262,0.7486202469933346,0.857845540402043,-0.3314474972917445,-1.9464857278363976,1.9861575953236927,-0.31597525948288413,-0.35097247480716665,0.6961081628727076,0.05616171022119656,-0.06644236483597044,-0.6346368092691622,-0.7447092866723525,-0.8833902931496088,-0.004898074002475849,-0.924392243041314,-0.6525362728230151,-0.8067204140657666,0.27649486276592233,-0.6303385631787446,-0.40689648140157497,-0.4594016270661391,-0.35069460694816923,undefined,1490103103016
903d185fccf839df,-0.058293883966408645,-0.7571397814902423,0.9853221310015421,1.0655580646030254,-0.38137426985624673,-1.9574704194822399,1.9328409043830796,-0.6889447390810016,-0.34346326579962516,0.518852787993355,0.09908681446045864,-0.04959940712082082,-0.7521376448306596,-0.7447092478200288,-0.9097061119296334,0.07188502058092841,-0.8924019601741981,-0.6603004609077777,-0.8222953150038452,0.2292062363291956,-0.648565500387773,-0.4214194066987672,-0.49033122186539657,-0.34101657268952795,undefined,1490103106118
903d185fccf839df,0.12188798282327809,-0.7048954466574388,1.1275989231775865,1.1616681461185165,-0.40926908232111964,-1.9372316602104713,1.8889336586155665,-0.9485065515663718,-0.21145570580245518,0.3972793926519497,0.07917258773619668,-0.1370739386307189,-0.7521376448306596,-0.7521159382420126,-0.9244429627897239,0.03551408996712267,-0.9313637749760187,-0.6897043186233753,-0.8141720178023544,0.2301301410500887,-0.658162640362959,-0.41905050804841293,-0.5262441709411563,-0.34537937025999943,undefined,1490103107531
903d185fccf839df,0.13574818481625509,-0.74833460036041,1.0287073744593072,1.0354098102022222,-0.37775371068231656,-1.9263401388328163,1.9199785152157123,-0.7115923462716158,-0.2636654508419815,0.2712411092049164,0.006560793003759809,-0.07780514592149003,-0.6476924576648841,-0.7058242493746655,-0.8212849478712194,0.10623522145795163,-0.8843640490867728,-0.6762404806531466,-0.772002239156337,0.31993387401778156,-0.6214686769007878,-0.3918881534201042,-0.5381553981209577,-0.31846871201340143,undefined,1490103109008
903d185fccf839df,0.3533523416469477,-0.6984382670641074,1.052313647417348,1.0294591493408318,-0.3947559643059722,-1.9142280957045283,1.9336824393964027,-0.6098236176632116,-0.2833443302071773,0.7639687335986438,-0.05551517551194357,-0.03986524784771735,-0.6215811608734403,-0.5688008586158136,-0.7707585852372316,0.1628122905859997,-0.8005524650934726,-0.6030506510219976,-0.7287689448900411,0.4755659628703643,-0.5434644469621644,-0.35570154291476835,-0.47135777366269077,-0.2502907807280318,undefined,1490103110505
903d185fccf839df,0.4573035460455875,-0.6896329836363019,0.9598016985404443,1.0043830398676985,-0.28061557624599676,-1.9410422967931527,1.9545552167229272,-0.4703006365189861,-0.3301303171305645,0.8525788450911483,-0.049254440918376025,-0.05170482146661944,-0.678155637254902,-0.5049183010412635,-0.7865480735603528,0.03955518199930776,-0.8096364879237822,-0.5639383901728049,-0.7396769738114134,0.3470351367108642,-0.5524893352060319,-0.3768807103715897,-0.4489444728607998,-0.274386795828693,undefined,1490103112036
903d185fccf839df,0.3644405170434932,-0.7048954028154503,1.0848523258737224,1.2925135008087603,-0.15957349634404003,-1.9320537613317719,1.9149634936283233,-0.7148832381161424,-0.2919128869746548,0.9564622216996114,-0.042862583170777346,0.07220230042202092,-0.8304715352049912,-0.4725141421455146,-0.8202323251326564,0.02339038989974435,-0.8227719317558754,-0.5615065401328864,-0.7546571460818912,0.30151732966958633,-0.5599529345516007,-0.3836241641618158,-0.4648278756084757,-0.2903400706596487,undefined,1490103113541
903d185fccf839df,0.13990615570008288,-0.6726095486907816,1.0752817824953864,1.13681336397848,-0.16170263558699163,-1.9442799374512858,1.8406767299656839,-1.231150767494137,-0.2876226056559682,0.9642841332572081,-0.04394203346046453,-0.08331341981028624,-0.7608414104278075,-0.4826982815784101,-0.8297060328509968,0.07390558072938173,-0.783952459884981,-0.533419934724333,-0.7645926172270368,0.30776909949006476,-0.555455174693014,-0.34938571889025777,-0.39695353573155745,-0.2448746337521256,undefined,1490103115015
903d185fccf839df,0.034568938003227294,-0.6673264137076892,1.0944221068412099,1.2220109827328085,-0.20711399656405793,-1.9205775998961083,1.909690732446104,-0.7650558917357527,-0.3061188368496777,0.7837064495785585,-0.01901684222953032,-0.025996791551428967,-0.5867660984848485,-0.4817724695583644,-0.945495608979063,0.10017334315954093,-0.7799992962578937,-0.5574217913059419,-0.7825044519457911,0.3045508240552332,-0.5708800252779536,-0.3736967263439951,-0.39242733134720664,-0.2589302605469525,undefined,1490103116635
903d185fccf839df,0.1634683127589312,-0.6326924849765387,1.02934525820236,1.105693759778289,-0.33171493904629507,-1.9259534840163615,1.8895174844121922,-0.9302969851866933,-0.3725833390060782,0.7227744962782903,-0.034975951426672966,-0.03793420707742537,-0.7738970588235294,-0.49936329941324376,-0.9118113868556945,0.18705960592659174,-0.7647284237269211,-0.5565795101456588,-0.7675242790513731,0.31243482714098325,-0.5619311600507004,-0.3394189585425159,-0.35014050609917574,-0.18795600842007554,undefined,1490103118142
903d185fccf839df,0.1634683127589312,-0.5622506267459876,1.1071823230717588,1.1126265479857733,-0.24951163997668266,-1.9058964059988626,1.9891792368846168,-0.20511772375942847,-0.3404135792109625,0.9288111574201813,-0.05706016984749836,-0.003192761994058876,-0.9088054255793226,-0.48640164621556387,-0.9233903547756285,0.14260623686592197,-0.7877383861223562,-0.5645590178060795,-0.8098689777857956,0.3520858255517891,-0.5652434761130173,-0.37692080947390294,-0.39888100358550604,-0.2678928677833878,undefined,1490103119505
903d185fccf839df,0.29098188124887775,-0.5986456150854983,1.42874028035549,1.5373708069659306,-0.2453356494637115,-1.9099236599809102,1.9222533140671587,-0.5998977197664634,-0.3357565823535473,1.2701316755513372,-0.1579752001530039,0.02278499711162281,-0.9740836675579323,-0.3419714873300808,-0.866548167363457,0.37093487567351685,-0.6414960072488513,-0.4826360589213203,-0.7539784511510277,0.44864947732239663,-0.4923663083210955,-0.31942612428928796,-0.35198285119897865,-0.20592135556606528,undefined,1490103121006
903d185fccf839df,0.4476013839472578,-0.6561731287433828,1.7636963376128227,1.637370594915055,-0.15104666203337258,-1.899528264501278,1.9327252019346148,-0.48587417433808977,-0.21148431104979917,1.3093710823703057,-0.1431557271358806,-0.06255456822811056,-0.9349167223707665,-0.22161311440606254,-0.8086533719371901,0.5143980662450081,-0.5840701227618782,-0.37347510900880165,-0.6782239795323272,0.7243432459120169,-0.3727659767947145,-0.26371117963698454,-0.25820043368683776,-0.12834375178879315,undefined,1490103122538
903d185fccf839df,0.3588963948398107,-0.7483345711324176,1.6967053294709158,1.684337177313324,-0.4185673633867453,-1.9453420702673436,1.906174688357775,-0.8057112161975827,-0.2269583988243846,1.0317204552383552,-0.09341293138970055,0.03082925433904613,-0.852230949197861,-0.1651372602042708,-0.6223373361020219,0.5830988071757129,-0.6187274968648387,-0.3018685150478508,-0.6153436404221947,0.8769110397993869,-0.2948300235715265,-0.27865067409000216,-0.33477266075211204,-0.08805304780104392,undefined,1490103124013
903d185fccf839df,0.39493284410964946,-0.7101785670265351,1.5359260966921007,1.557180136030021,-0.45501987013015055,-1.956857829620041,1.9118945077486396,-0.818377139291707,-0.18048295161116631,1.0139958965369273,0.031412211959446705,-0.0031598359429160544,-0.7869527072192514,-0.13365890037779313,-0.6202320611759607,0.4315530933631931,-0.6004553385632005,-0.21016749193355158,-0.6015109467870985,0.8712752084967998,-0.25676295488390377,-0.22830564857397478,-0.2573524442098882,-0.027012377517351742,undefined,1490103125513
903d185fccf839df,0.270191612764822,-0.680240772894352,1.5186996777123851,1.6557716104459033,-0.5282848873844457,-1.95902868067211,1.911055590492279,-0.8586106338364353,-0.20390189159159505,1.1595421061161537,0.1313218476884966,0.0524828697069002,-0.6215811608734403,-0.20124477078639882,-0.6802321315282889,0.6235109428805898,-0.602466767134328,-0.1874068931376748,-0.5879511269716599,0.7881851958724272,-0.2571235783945376,-0.28711500441763343,-0.2960234261398621,-0.03866781427825829,undefined,1490103127034
903d185fccf839df,0.2244531049128827,-0.6385626495717488,1.5869669616142963,1.621678596703584,-0.4652027024742226,-1.9540068413895548,1.911902386160051,-0.8335397356285564,-0.21470260786294146,1.3266967000152028,0.1461433866379293,0.049923324306469195,-0.9479723707664884,-0.1660630981258656,-0.72760061122212,0.42549127159422545,-0.5720235093152389,-0.2805074973472708,-0.7052036854475492,0.5878822150704538,-0.36912441327129486,-0.3068670431576796,-0.29914464672813923,-0.06086123012151334,undefined,1490103128515
903d185fccf839df,0.056745357807137735,-0.6573471733536217,1.0446572635420692,1.0874760880242569,-0.4777821115146766,-1.9664985512139037,1.9223453456656463,-0.7957780872397059,-0.21323021712576906,0.8650783703923047,0.2012750287617055,-0.0813010709028647,-0.8261196524064172,-0.2530915001340893,-0.8023375766079416,0.20726557485250485,-0.5700620147078026,-0.3718475445433516,-0.7663068347051127,0.3252155334554368,-0.47747251844491245,-0.31502391704958344,-0.35865965342713163,-0.12345650551455774,undefined,1490103130015
903d185fccf839df,-0.10264641302554192,-0.7600749003228378,0.8468736578316117,0.8827586542249318,-0.6940388909382669,-2.002960462255983,1.9528668844705492,-0.6931391139669031,-0.24495097350458286,0.30806465819215334,0.15012674519370528,-0.07841785638563609,-0.7260263480392157,-0.3771532506460359,-0.9539166939588403,0.02339033337030128,-0.7126004215966067,-0.47733538720049634,-0.8628978084661495,0.12706834076434992,-0.5876590729559782,-0.31526985388702866,-0.3774978190023884,-0.24990476117017318,undefined,1490103131531
903d185fccf839df,-0.14006880658277696,-0.8340388485421172,0.8717564606866063,0.8645645205845542,-0.8436134975957613,-2.031095341810342,1.9215984992898416,-0.9613435480044867,-0.2798171545080355,0.020528385912495686,0.12092888405436074,-0.04227058360931766,-0.865286597593583,-0.4484423950363735,-0.9549693240596371,0.037534565321411376,-0.7145499155779426,-0.5463011424022249,-0.85493543731535,0.0797335194893898,-0.623945472545115,-0.3355569181113108,-0.4502304429613421,-0.26486042694515777,undefined,1490103133019
903d185fccf839df,-0.02780162591107183,-0.7653580060779379,0.9961686960029328,0.9769609397747985,-0.73191082505929,-1.9776858865983094,1.9502817860945028,-0.6868173804074839,-0.19342977124120878,0.22603077146062725,0.058085581350659304,0.04016287745092695,-0.6650999888591801,-0.56231999316465,-0.9518114411194805,-0.09986674695166912,-0.8081677096850987,-0.6382681500146944,-0.8852806065279275,0.005820983945440135,-0.6809494938975245,-0.42976791935059944,-0.5513340707563966,-0.33774706250546144,undefined,1490103134517
903d185fccf839df,0.00130472236227844,-0.7166357173918743,1.2022463151947722,1.1377431526200592,-0.6734880678813094,-1.9577173185285566,1.954226494432537,-0.6283735659000721,-0.17112121560598664,0.39115826360786005,0.10113386639974033,0.016548210102781374,-0.7434338792335116,-0.5882433254615589,-0.9023376791373543,0.09209101777156306,-0.7663588668086371,-0.6746699123485932,-0.8128006421487123,0.05988492590735226,-0.6667633149702897,-0.40378318929405527,-0.5473267515453478,-0.3058240214534792,undefined,1490103136036
903d185fccf839df,-0.15670089715054653,-0.74187737692509,0.9999967608720974,1.0056825211588944,-0.6390001290501939,-1.9561963259431125,1.9843140973343067,-0.4231792976069188,-0.17650169034263705,0.27783063748823417,0.044804514790337854,0.10299115620060245,-0.7216744652406417,-0.591946677147938,-0.8307586261406246,0.12240011248404042,-0.7547656942017842,-0.6784950105954979,-0.7962741752372587,0.0059287749348251265,-0.6672443916887094,-0.3847878681487731,-0.5418283959781227,-0.26090372020095487,undefined,1490103137515
903d185fccf839df,-0.21629953798464335,-0.7536177353435025,0.8774984309218785,0.8900632801916853,-0.6867566168648827,-1.9957491374254777,1.9862864541221286,-0.4567806734430994,-0.22406199923221465,0.16229625970876477,0.06376819249379342,0.010634305133358904,-0.6476924576648841,-0.5984275296483271,-0.7476006420351299,0.05774070383565371,-0.7680754381713366,-0.6769244396111981,-0.7647045650755243,0.014490310602960417,-0.6582149212311212,-0.3759846376132035,-0.5197888965611583,-0.2657888207797072,undefined,1490103139129
903d185fccf839df,-0.27728419211695593,-0.7923607252195141,0.8602722660791122,0.9015759252762555,-0.7277142665251204,-2.016956860007107,2.0314139318393387,-0.19263653039449413,-0.278939241479991,0.060936876049020164,0.09888390938650682,0.05170582238911203,-0.6259330436720143,-0.583614161755134,-0.6718110833596805,0.16079170217282485,-0.7144649488063319,-0.6317515519783312,-0.7137048111948964,0.10458661387258517,-0.6078647826691759,-0.3643979647858713,-0.46097299920187274,-0.2100831708922056,undefined,1490103140596
903d185fccf839df,-0.2966883782919765,-0.7806204398710824,0.7530859414686026,0.8024354223487051,-0.6893588999100567,-2.008622841618993,2.0635396360917606,0.016379448287536597,-0.23843676452724072,0.3381596735642293,0.125031464771653,0.07204593734744924,-0.9305648395721926,-0.5928725280203074,-0.7044427342801225,0.08198796264680266,-0.7515522631465154,-0.5999665079161877,-0.6957579915225506,0.06256425560347843,-0.5934930293777478,-0.36559682415120565,-0.46856097474649167,-0.2437691045288559,undefined,1490103142007
903d185fccf839df,-0.0846282056433274,-0.7894256794568995,1.0880422528628848,1.1265416265559738,-0.7017223051696238,-2.0023711629493937,2.002898936219763,-0.3708507840108929,-0.21477995467844826,0.5504859467503217,0.09940052359100804,-0.0008394612045065124,-0.9436204879679144,-0.563245856987794,-0.6833900144684456,0.021369773221847962,-0.7145265749764846,-0.5888901891475958,-0.6752293489609152,0.03624831424742261,-0.5860116456656262,-0.3929069165968078,-0.5147244059589479,-0.2315694527543161,undefined,1490103143504
903d185fccf839df,0.0013047568676881746,-0.7142876720133848,1.335590701872483,1.3798549500131427,-0.6508183915205018,-1.971215259193067,1.9479991014989921,-0.6812562596411232,-0.1876276867146377,0.6034977526123058,0.054914767941754546,0.03712398479284939,-0.843527183600713,-0.5419516495449863,-0.6918110994482228,0.01732853986605519,-0.7578259117824674,-0.555458577381784,-0.6781610124185069,0.04268486265348317,-0.5706984724011371,-0.36173336636009706,-0.5636270386995522,-0.22021981125588777,undefined,1490103145021
903d185fccf839df,0.1302041316233921,-0.6837628628830803,1.13653132867592,1.094676531787807,-0.6280869977846317,-1.976435084477354,1.9325779224654325,-0.7660180431095203,-0.22417439462872216,0.5500710808740191,0.01749872543787339,0.02039510359173586,-0.8391753008021391,-0.4882532832064298,-0.6897058392466292,0.07794670102628835,-0.7535926857762967,-0.5351741583567742,-0.64387663924513,0.13681555749920105,-0.5326132393680612,-0.36898063313960033,-0.5589323243704442,-0.17022240100342872,undefined,1490103146504
903d185fccf839df,0.20643493203607793,-0.6092118850516833,1.2092645611900488,1.2391006747023228,-0.592591060615739,-1.9671810178517097,1.9978786351225324,-0.3174328590150049,-0.22677644209722692,0.28501103725336296,0.0732568303124,-0.018849289364998568,-0.6955631684491979,-0.46973660247918114,-0.693916374374284,0.10421468957421985,-0.7740588563851336,-0.5100703710701989,-0.6254820234503456,0.24498964067689588,-0.4927497155199708,-0.3676138418697959,-0.5404581679367477,-0.14204654018559518,undefined,1490103148013
903d185fccf839df,0.2979117407074981,-0.5968845262491457,1.3304866153802635,1.3594282084582552,-0.4317021875440149,-1.941745725219404,2.022727682094981,-0.08195595915079903,-0.19091383526138722,0.32375585315021305,0.17165618496798823,-0.01122926574544858,-0.6563962232620321,-0.38548575308806543,-0.6781268860511629,0.2739456708405918,-0.7429096990521081,-0.4746502161966791,-0.6362501145698656,0.2892755688111297,-0.4697927098855022,-0.36467116940054284,-0.5671079807760093,-0.1297335518861011,undefined,1490103149550
903d185fccf839df,0.27989377486315176,-0.5869053151230705,1.4344822505907622,1.4853165395721206,-0.36797200462660423,-1.9501356457252115,2.006793689814728,-0.18333316955818432,-0.18808971975533195,0.495412456210425,0.23615677649134828,-0.02360631728755177,-0.8217677696078431,-0.35308152943844384,-0.6781268860511629,0.3123373029264585,-0.6618155447639527,-0.4752265140990052,-0.6547077018766372,0.2577087527114587,-0.4807804016409713,-0.3294782813617458,-0.5454356382718142,-0.1354806412567467,undefined,1490103151014
903d185fccf839df,0.2119790542397604,-0.6544120837490186,1.4631931183149214,1.4027585204149446,-0.30065211848008044,-1.9413078288802306,1.9419453002108094,-0.5924099836005127,-0.20228146945824035,0.810153742990787,0.18360917121566817,-0.022720143850575376,-0.8348234180035651,-0.38641156510811114,-0.674968973662071,0.3103166579838406,-0.6653967445632829,-0.49688518176359225,-0.6901815327644739,0.28557993931925735,-0.4991749580792684,-0.38503054485018495,-0.5115425180553665,-0.12151608835247994,undefined,1490103152508
903d185fccf839df,0.281279719150548,-0.6538250979788895,1.3655770829457983,1.4254071869330414,-0.22148311107569127,-1.962671611202067,1.9607773348604787,-0.4719449375238924,-0.24493680295294545,0.9752180692373732,0.13441820291699005,0.010959063041161123,-0.7608414104278075,-0.3401198503392149,-0.6444426344788592,0.4578210819111246,-0.6581457135703913,-0.4404523197906326,-0.6503486887310526,0.38203580045049984,-0.4449399057090767,-0.39624955918579974,-0.5109004883748609,-0.09343243194488933,undefined,1490103154032
903d185fccf839df,0.10664197456454376,-0.703721416661196,1.3655770829457983,1.4296799411696883,-0.22468196899225362,-1.986727993927464,1.9106584948831165,-0.8384824449954679,-0.20285925088978604,1.1766149938079136,0.13345119026011867,-0.03489286405292051,-0.6433405748663101,-0.3401198373884403,-0.6191794237129301,0.3972027511625622,-0.6730220647986286,-0.3940571746813557,-0.6330245861320563,0.3831598862141895,-0.42138975766451203,-0.39324359232750544,-0.5378540185102456,-0.16672384687981145,undefined,1490103157250
903d185fccf839df,0.14822216647855793,-0.7054824616555602,1.4268261208524329,1.5150849262936723,-0.22283054110069772,-1.9811657707911932,1.9064324017645593,-0.8544269074763226,-0.24329906764617137,1.0991176383996584,0.16710991621920537,-0.048079838187425665,-0.9131573083778967,-0.2929023235502729,-0.6297057247208983,0.44367673690112835,-0.6649461752783479,-0.39888920982687587,-0.6366559299799707,0.34213842684524215,-0.42563057994191367,-0.3870370521735405,-0.5282466875747122,-0.1680465806693704,undefined,1490103158515
903d185fccf839df,0.2771215412342618,-0.6866979232596911,1.238612804383362,1.332243984525062,-0.3627057360810802,-1.9736516441076242,1.9213933772384815,-0.773869313094368,-0.30042838063404254,0.988288598097401,0.18023725994573525,-0.027048982914884657,-0.9044535427807487,-0.2854956201775145,-0.7044426901067198,0.18908019433976658,-0.7086223064273994,-0.46014144306781074,-0.6884113403589561,0.2980064815365317,-0.48259085690672787,-0.3990189577851438,-0.5173333653169584,-0.22538636942858373,undefined,1490103160039
903d185fccf839df,0.266033538364765,-0.680240772894352,1.2239389369236549,1.3195101908241047,-0.5351043002418356,-1.9584323953308602,1.8788220674404137,-1.0773184720752604,-0.40057429091081187,0.801653205800979,0.07845883427025112,0.04205214748075696,-0.9479723707664884,-0.346600728741153,-0.7349690587388668,0.17089475729758524,-0.7267175780323006,-0.45333986206212834,-0.6982698463397758,0.3305741947727995,-0.48116341677678715,-0.4016675215838131,-0.5159205644379998,-0.25928977850243523,undefined,1490103161640
903d185fccf839df,0.40879297709180695,-0.6814147882765986,0.9827705960293311,1.0618098354565852,-0.5043603447220113,-1.97227972200988,1.9611008085429207,-0.5288307122835638,-0.36988572610481085,0.8653491318501444,0.1214829013089464,0.04111767052314474,-0.673803754456328,-0.3493782166043883,-0.7602322253313931,0.12846197665009035,-0.7310261161874639,-0.49357305351589614,-0.7345553083108564,0.25173415298390306,-0.5223826779640472,-0.39203359539568844,-0.4828136685561066,-0.27475132985836176,undefined,1490103163158
903d185fccf839df,0.4434435165796592,-0.7019603278248434,1.2092645611900488,1.299298873371086,-0.45622328603887863,-1.9588516588399298,1.9039971922344836,-0.8916514308118008,-0.2804704714942724,0.6629283420863401,0.22029199762247545,-0.07165858136699642,-0.504080325311943,-0.466959095189784,-0.8360218208180115,-0.2150413888267755,-0.8439285657045345,-0.6111251542106724,-0.8511221767761339,0.06758414488797343,-0.639518289736356,-0.4249895943905046,-0.5654562457523171,-0.4023133544929013,undefined,1490103164501
903d185fccf839df,0.3588964293452204,-0.7219188962169552,1.0548654365265082,1.0829513973826466,-0.4920175125009495,-1.9644488218044018,1.8731074998000625,-1.1280466581245472,-0.21314389474844897,0.44655465210330575,0.3295694561166629,-0.15084286077393325,0.02684937611408201,-0.665087562135338,-0.9423377186766726,-0.1463407609549568,-0.8724724109749333,-0.7336486166555811,-0.9204395816297758,0.2828852107199665,-0.6702917107593102,-0.46784257194635964,-0.597985430057651,-0.48862143628246874,undefined,1490103166011
903d185fccf839df,0.1412922380091181,-0.7043083878173289,1.1320651259267533,1.1960435028166785,-0.47933525206356237,-1.9572188626161875,1.9165334862961196,-0.8610104120707777,-0.1478358381528245,0.5996182620325408,0.49304449509080356,-0.2889482204636093,0.21833221925133692,-0.6817525605440098,-0.9633903722282454,-0.015001298715565463,-0.8641780827524808,-0.7304948103056,-0.9633090424522978,0.3681156097788253,-0.6641051409113928,-0.4723924372952735,-0.5773789125512611,-0.5372464828366836,undefined,1490103167585
903d185fccf839df,-0.1206644823861175,-0.6673264137076892,0.9336431281993443,1.044375381107864,-0.6603943777579137,-1.9603097622668484,1.9338428725967514,-0.796913277042249,-0.09877342340582028,0.592700318039312,0.4772920022289472,-0.1803751790054009,0.013793727718360084,-0.6799008911762076,-0.9612851267511194,0.0718849357867638,-0.860038150409852,-0.7514378547809754,-0.9573967375184221,0.37170344834862384,-0.6683877663285456,-0.4904598948505263,-0.5402902973941761,-0.5824059511754499,undefined,1490103169011
903d185fccf839df,-0.24124784636334637,-0.5810351505278605,0.9132270363674154,0.9490917371821276,-0.6714309282075464,-1.9625108921620875,1.9991725089018637,-0.37198730098671084,-0.07938772401601296,0.566345689185407,0.4387050512048739,-0.21416955034729726,-0.43880208333333337,-0.731747594622349,-1.0023377963912345,-0.05137222932937121,-0.8737634826291963,-0.8040329510251157,-0.9941439887015103,0.33774987658381844,-0.7099545188313888,-0.4846269484163792,-0.5958392455955301,-0.5713471793639949,undefined,1490103170506
903d185fccf839df,-0.2343177798722676,-0.5681207767272015,0.95086954717906,0.9677887095072079,-0.6613200918337253,-1.9863227050581873,1.92768386555224,-0.854597621967214,-0.08104518908986222,0.27899542635006164,0.3866360929668296,-0.15819669210235734,-0.19074476381461675,-0.720637578415535,-0.9960219863375185,0.19312134290139477,-0.8148635557311722,-0.7815889984774119,-0.9965299010024772,0.29902278480555355,-0.7087696765352272,-0.49512212257949234,-0.566945630611246,-0.5654538014712321,undefined,1490103172032
903d185fccf839df,-0.37984931420656054,-0.591014390881928,0.860910149822165,0.9499876761264963,-0.7781861773997152,-1.9821300749843045,1.9641303499894545,-0.6487607071919201,-0.16099339871652163,-0.05877584948391552,0.3786065440469998,-0.23810369592912178,-0.17333723262032086,-0.7150825832629025,-1.0076009542574524,0.22545104015940773,-0.8153790062578445,-0.7961990991259053,-1.0020154007297921,0.24052408889924715,-0.73124685242647,-0.4899929552349079,-0.5362635650687094,-0.5311601320345853,undefined,1490103173515
903d185fccf839df,-0.43113180624054337,-0.6667394133235639,0.985322639275441,1.030996561258144,-0.8088375553805617,-1.9723379537274006,1.9389657381241077,-0.815507512383997,-0.1653944556948485,-0.05358657920553031,0.420546763475417,-0.3545287953167694,0.2879623440285205,-0.7067500872962603,-1.026548369694133,-0.09986671868694759,-0.8485270411705194,-0.8119237979391328,-1.0032958170468191,0.07676162210301993,-0.7771299986370167,-0.4840223953298518,-0.49561515404096607,-0.5351818250702803,undefined,1490103175006
903d185fccf839df,-0.36460316792618724,-0.7113525824087817,1.0057387311073698,1.0178910738299258,-0.9408133280135712,-1.9577778795826957,1.9575821288897581,-0.7037862914333073,-0.22345950631682265,-0.2777347398984674,0.3694877854088191,-0.3734537426455625,1.0669493649732622,-0.7030467356098811,-1.049706268722832,-0.07359881493318071,-0.8398563841164964,-0.7872189846314801,-1.043296584345535,0.061147596199204395,-0.7832398027906688,-0.48813924859089675,-0.5278691814944046,-0.523585793816002,undefined,1490103176535
903d185fccf839df,-0.3063904713794867,-0.6461938372403288,0.9534218445621192,1.0148546427882528,-1.0550874261640126,-1.987366205126139,1.9031977346003397,-1.097527312083943,-0.22789452422868553,-0.39393969183550426,0.3963485470176733,-0.16712066211967513,0.17916527406417115,-0.6752717274697826,-1.0044430639550619,0.21736862997726525,-0.7797517607248672,-0.7780425494367225,-1.0225790265505927,0.19118746929893796,-0.7492296572348423,-0.4799887258041452,-0.486340411581629,-0.5193206536578149,undefined,1490103178003
903d185fccf839df,-0.2814423010224226,-0.6884589609470572,0.9202452823626921,0.9477071473129745,-0.9989789496413807,-2.0085343304131924,1.9499136125620704,-0.793459405208231,-0.26264621906102686,-0.3951928162494686,0.3604632047863796,-0.21156244992257736,-0.4823209113190731,-0.6771233838868104,-0.9781272488561543,0.3931616591303771,-0.8516258371195701,-0.7427237223596609,-1.0088372902518326,0.3319600601940398,-0.701658806773575,-0.49467301956612436,-0.4774216361769119,-0.5486323172689893,undefined,1490103179502
903d185fccf839df,-0.5323108805265225,-0.7113525897157799,1.2150065314253211,1.0954195017635073,-1.0094189340779323,-2.017005773462587,1.9171804174244154,-1.018300453182137,-0.26120422231734924,-0.22226442399588842,0.359726389092595,-0.14049060785443937,-0.042780748663101595,-0.6474967193296841,-0.9781272451750374,0.4133677128504548,-0.8899995972449812,-0.6414219551853657,-0.9900648465228981,0.36982483782916703,-0.6356079706033029,-0.48891880581667885,-0.5731515081334875,-0.5798562589685676,undefined,1490103181031
903d185fccf839df,-0.2828282108044092,-0.7019603278248434,1.630351950935112,1.669383579019407,-0.9059859610021399,-1.9702136877455487,1.9942442462120125,-0.4436356299016848,-0.27779128323262436,-0.17006291593905593,0.2587342044675937,-0.2622404576926888,0.7144468582887701,-0.6512000321637397,-0.8928639751001308,0.4073058910814872,-0.8686050327376337,-0.6346330395133716,-0.9529327714389376,0.33690295846291135,-0.6282024629740937,-0.49215071843945574,-0.6519042366780298,-0.5159054770723512,undefined,1490103182520
903d185fccf839df,-0.14699890757926545,-0.6820018325027124,1.7081892699414603,1.7042220500575067,-0.79865471125142,-1.9545309202371304,1.9766850332961827,-0.5006342871742452,-0.25329104425304644,-0.03613062287207675,0.14938832190559723,-0.1794820476050383,-0.3822276069518717,-0.6382383789660598,-0.9054955841642123,0.3810379025335557,-0.8170195356603548,-0.5771552437050353,-0.9221328095499616,0.4480335417123638,-0.5730810614119943,-0.4862838002836543,-0.6229777707944488,-0.4515358990736607,undefined,1490103184014
903d185fccf839df,-0.018099498318151826,-0.7272019873580592,1.5372021183151556,1.773908520386858,-0.7641359139348257,-1.9608268533704947,2.000516333757939,-0.3454533987755843,-0.25675462432770796,0.1554507398533143,0.14908060492943265,0.0007754252787224195,-0.5911179812834225,-0.5956499899819936,-0.8254954756366405,0.29819298618118384,-0.7840946293803722,-0.49397836059352274,-0.894691318025681,0.3871634866208716,-0.5432689052694629,-0.44971777522310075,-0.5874822726753768,-0.3595971638656938,undefined,1490103185655
903d185fccf839df,-0.14838485186666175,-0.6972642370678646,1.7337099565395075,1.7719547706281273,-0.7475039422417311,-1.9465695800550136,1.9453824575278822,-0.6858661138779212,-0.2631934800545316,0.3713947524334932,0.10215176033599958,0.061425690802583956,-0.6433405748663101,-0.5475066252714569,-0.8676008195509551,0.30627542462804785,-0.7556958172803043,-0.470907447286157,-0.8725044302463728,0.4096452169186008,-0.5206298953522724,-0.45271907200640604,-0.6264753335655363,-0.29166832123740966,undefined,1490103187107
903d185fccf839df,-0.15670093165595625,-0.7219188523749667,1.7343480944195098,1.7757993226050661,-0.7496536523686268,-1.9669294613390182,1.9236076544707619,-0.8403988670947862,-0.20778515344089515,0.13224194646361873,0.038534614914195554,0.0514998600416301,-0.9349167223707665,-0.5419516106926626,-0.8612849874105377,0.4760064058944198,-0.7364695288554571,-0.48179377737347046,-0.8443912440398937,0.6618717521844778,-0.48144840410813305,-0.45000886565086634,-0.515813070360784,-0.2739683985143058,undefined,1490103188516
903d185fccf839df,-0.15670093165595625,-0.7189837627703636,2.11268837858681,2.035364390558338,-0.7493245091071465,-1.9459453442744308,1.8554194233719485,-1.2643480782468643,-0.24377408154391278,0.2364612938138012,0.032671467148898466,-0.0031127129703091986,-1.013250612745098,-0.3947440675501407,-0.7781269959428093,0.4113471527020015,-0.5817545696883962,-0.3772938751978956,-0.7785232654436566,0.7541700375820212,-0.4061047438950654,-0.3480145460680482,-0.4398791923842157,-0.2100116438355447,undefined,1490103190003
903d185fccf839df,-0.18303528783828477,-0.6790667282841131,1.88045244319082,1.873906310477614,-0.6786823415108568,-1.9426098735368713,1.9218062469545778,-0.8066280846289318,-0.23359737769018207,-0.027337085241999386,0.09104824978943982,0.04533065683446586,-0.8826941287878788,-0.3595623689880584,-0.6812847763535533,0.7144382411503827,-0.5301595692243898,-0.3770658889099195,-0.7483949973621391,0.8176116310975461,-0.38770285610991095,-0.3353759722935853,-0.39401430581510855,-0.1392815739632011,undefined,1490103191525
903d185fccf839df,-0.16363110166326422,-0.6790667282841131,1.8274974187655673,1.8849774808235413,-0.6403886909385087,-1.9402619995481445,1.8941485814056949,-0.9862039129327298,-0.25920955451567074,0.26380308522398305,0.10129077881232781,0.05747706538062036,-0.7738970588235294,-0.29197652448100175,-0.7560217049282059,0.7487885833510136,-0.4414484531449402,-0.3528677108196248,-0.7359056899044509,0.8745242885095033,-0.36565609941998417,-0.29705431927073234,-0.2819183122039847,-0.09882935441148412,undefined,1490103193010
903d185fccf839df,-0.029187673714697316,-0.662043307952589,1.5206140913523916,1.6840455505330365,-0.5722870940496427,-1.9607849272140718,1.8750298829894225,-1.108271548328453,-0.2746694231885691,0.5441047816659774,0.06200090509980857,-0.02309547498917167,-0.7738970588235294,-0.24661063468292574,-0.7518111845250186,0.7568709652684346,-0.49427478913347234,-0.29624486028165675,-0.7341984679587857,0.8881365126550809,-0.33370143989261336,-0.2882006921903963,-0.27545608105195407,-0.09114379190307285,undefined,1490103194518
903d185fccf839df,-0.11650651150228972,-0.7272020165860515,1.979981875652152,2.0243106957228654,-0.5156129065044979,-1.9798544077397753,1.8723211838505844,-1.1022288794652144,-0.2993410677797649,0.35351575112712624,-0.10451344441593012,-0.008412507655416561,-0.865286597593583,-0.029039694416239145,-0.6518110378222032,0.9609524017943235,-0.3703091003017616,-0.18816684290193564,-0.6505585917911213,0.9584612125236281,-0.2450563333640947,-0.2668997354299463,-0.2738165359193256,-0.004180895338350486,undefined,1490103196016
903d185fccf839df,0.30207005664542325,-0.6549990841331439,2.3761872249530693,2.3635057466001257,-0.32832064395567584,-1.947436056663515,1.9382530467201544,-0.5694576207803139,-0.25042688856435286,0.8922065230624482,0.07962888208986296,-0.11368439623422898,-0.691211285650624,-0.028113869445418892,-0.6791795529631286,1.1064361242495464,-0.39135172564124104,-0.13834557346930984,-0.669918768386095,1.1020363119413878,-0.20162757482813282,-0.276499202698873,-0.18542420933547415,-0.027218499849293084,undefined,1490103197510
903d185fccf839df,0.44760145295807724,-0.5816221509119858,2.2377390059200883,2.239601559582598,-0.21538369300995183,-1.9330227245483094,1.9557701885419359,-0.3998219765204067,-0.20155316316231658,0.9426897374486497,0.13508775885244997,-0.12941838413265616,-0.517135973707665,0.0005870025178234811,-0.6854953482923771,1.0296530296661421,-0.45864236349697196,-0.12932112954291622,-0.6524757196168202,1.1525432128032727,-0.17821860237902046,-0.27775963008567256,-0.20227007744330325,-0.049761807086776175,undefined,1490103199010
903d185fccf839df,0.3824587589311174,-0.5422921021958643,2.1611774543998457,2.2233618087405334,-0.18627517262766835,-1.9272858084358162,1.9416665373773367,-0.4871850792265519,-0.21865728882575022,1.1496686916633225,0.14105762336138167,-0.16436414021776233,0.37500000000000006,-0.04385297165401045,-0.6339163481953587,0.9387257031316278,-0.5569988139812879,-0.07392687279686512,-0.6353055459395516,1.1900230276463786,-0.14257158105528822,-0.2819036468900346,-0.25714766502252945,-0.041919727690212606,undefined,1490103201416
903d185fccf839df,0.39493287861505916,-0.6103859004339299,2.132466840812636,2.20031349449279,-0.19268316250079534,-1.9360623821747516,2.008279523534079,-0.06917254559253976,-0.20349609062629267,1.0419734317029385,0.192258898863789,-0.22084028041380602,0.1878690396613191,-0.06977632985246843,-0.6328637254567956,0.9043753044015539,-0.5582061462641621,-0.05627695926627378,-0.635977239734776,1.2204195591458207,-0.13121750630526818,-0.27798054224365587,-0.2762840675513728,-0.032982534290347795,undefined,1490103202497
903d185fccf839df,0.30484208324185474,-0.5152893830542882,1.6992571185800762,1.806077133762857,-0.32589322717660846,-1.9359459197354627,1.9035843115194089,-0.8049049616746282,-0.19449550400891832,0.8261254869684839,0.20129456664632778,-0.10612107653733517,-0.6476924576648841,-0.10218056645286454,-0.6560215876743256,0.9326638248332172,-0.6113415072550566,-0.05967141702198922,-0.6438206637916208,1.2070383049103957,-0.13413011240272632,-0.28454592067450735,-0.3142404157648542,-0.0631440393378717,undefined,1490103203842
903d185fccf839df,0.3297903226097383,-0.5822091366821148,2.0775979110212752,2.1177531469651045,-0.3674165804974414,-1.9456821391859023,2.013523356878198,-0.09942017335924161,-0.2693815823019979,0.5922365859418887,0.256323936034151,0.021262290851127755,-0.9871393159536542,-0.15310140607586206,-0.6918110994482228,0.728582586160379,-0.6047374698288887,-0.11795983036848152,-0.6874877600875883,1.1712831132244246,-0.18129954647552204,-0.2840152995830894,-0.28610490383944515,-0.10811356069385487,undefined,1490103205330
903d185fccf839df,0.3325623492061698,-0.5393570418192535,2.034213175837409,2.1469444208272255,-0.35940402299860325,-1.9364863031995758,1.9247016589967691,-0.6812000275631024,-0.2926334026767666,0.9728186332462266,0.29785075027042424,0.023727576565329155,-0.8130640040106952,-0.147546443300166,-0.6823373917298825,0.6235108580864253,-0.6012104628856327,-0.1771031912332284,-0.6967445397580101,0.997480861922329,-0.23947256817871368,-0.3093658852692683,-0.3683391060460483,-0.08277772066407417,undefined,1490103206853
903d185fccf839df,0.085851706080488,-0.5792740616915079,1.9525477919618959,2.0391031478217516,-0.4295113375077152,-1.9447970297065251,1.945116834807792,-0.59656738300032,-0.20549344645443404,0.9779409223090234,0.3579005587867641,0.08606964859300623,-0.9523242535650625,-0.16421146113499963,-0.7149690205636231,0.43357368177636796,-0.5807072491552788,-0.1819225616873137,-0.7244519117961473,0.945603504841035,-0.2603088505909573,-0.31177115210252665,-0.33816778270258924,-0.10988345843912119,undefined,1490103208343
903d185fccf839df,0.26464742155032006,-0.5569675063768913,1.9506338865957884,2.0043567842476286,-0.3372075002225658,-1.9429732360562832,1.913175205275086,-0.7752708989391828,-0.19207729922185704,0.9415252044073956,0.3214334225012465,0.09811692078072852,-0.9305648395721926,-0.16884061189065,-0.7181269255904812,0.5143981227744511,-0.5501892592073346,-0.23132585470561517,-0.7392151824645514,0.9217821139762572,-0.2905532276025016,-0.32160065402645366,-0.36133489869828184,-0.07746942457045872,undefined,1490103209836
903d185fccf839df,0.3214742428204438,-0.5880793451193134,1.93276958387302,1.9620463768153833,-0.2935755638508989,-1.9618983054606538,1.931123632769862,-0.6563793735384283,-0.20042431438538916,0.804234805804673,0.2838454499410327,-0.03752927999826365,-0.6868594028520499,-0.1577305827330615,-0.6960216345758777,0.6012842442178943,-0.5515278064405067,-0.24066694604841835,-0.7312668045501305,0.8845640698248042,-0.2983632012984251,-0.338393645601918,-0.3680074697435472,-0.04135676237791088,undefined,1490103211435
903d185fccf839df,0.32563207568263264,-0.708417522032171,2.3072823114450545,2.4182532306285642,-0.37952284499948136,-1.989506777383964,1.9964164643967448,-0.28024568763560814,-0.21352521580205117,0.727228024760482,0.2977695708919383,-0.029686054394625044,-0.5911179812834225,-0.155878932791421,-0.6802321462527565,0.5992634579516687,-0.5361441801307386,-0.25618899240801907,-0.7074706502875378,0.9331307682163212,-0.29397976447682894,-0.32738966156070387,-0.3778035819990949,-0.03325819059583812,undefined,1490103212843
903d185fccf839df,0.3921609900402666,-0.6356275891951381,2.2983501600836704,2.382838013230821,-0.31382809504600934,-1.9601723381270013,1.9069978095092432,-0.8030864622950759,-0.1709623923123372,0.9541588928103323,0.20982872170246142,-0.011712101092029923,-0.4866727941176471,-0.14199140281982267,-0.6602321080775129,0.676046609064516,-0.5056091193711417,-0.22493591550957984,-0.7468067219782444,1.0155894415483768,-0.2680126860296491,-0.3224111391271014,-0.43117563278643634,-0.025017728564125655,undefined,1490103214349
903d185fccf839df,0.39077497674205086,-0.6356275891951381,2.5880073226540796,2.5590118163235442,-0.29102470576199824,-1.961225154266158,1.9633335106360346,-0.4248965953880875,-0.22020445257080534,1.0308181315684064,0.17291115624614664,-0.057270240940834445,-0.4866727941176471,-0.13921391495658736,-0.6602321080775129,0.7164587165046714,-0.5134939905344453,-0.2153731714758045,-0.75435628062056,1.007736234720791,-0.26515807687673076,-0.3281292714330651,-0.434891050442402,-0.01770865970587586,undefined,1490103216020
903d185fccf839df,0.4836377987116868,-0.6773056979037451,2.547174376579374,2.5885827319410932,-0.334132066653419,-1.9524183001491993,2.05643127418696,0.17561280560215095,-0.15353546798791193,0.9151991139446876,0.22524053679742742,-0.05022032948283298,-0.6433405748663101,-0.1132905308565803,-0.6202320759004283,0.5285422981961182,-0.5377544718088212,-0.19603869438997013,-0.7191623210422511,1.031403645317884,-0.2428530335217904,-0.3569243592106673,-0.491723995114259,-0.06741643195071756,undefined,1490103217356
903d185fccf839df,0.37552869244003867,-0.6503030079901613,2.533776022468823,2.607616024060571,-0.2666476122190256,-1.9114120440671816,2.009052682609825,-0.07183969748589027,-0.17220435755650426,1.1137357187487624,0.11365218469959043,-0.07795757758067987,-0.5650066844919787,-0.1725439635770292,-0.653916327472732,0.59724298259738,-0.5906920635801446,-0.20548744775741543,-0.7258442748116546,1.0748272605340505,-0.23860907640905285,-0.37261578813863033,-0.5833380773614282,-0.10161902403528948,undefined,1490103218839
903d185fccf839df,-0.13175265778266299,-0.6990252820622288,2.093548308377936,2.087969963082765,-0.5151911916555898,-1.9203307009354134,2.064846640556779,0.20066022866137928,-0.19442396902046097,0.7816395127683522,0.058275082513918754,-0.0380573819193478,-0.7042669340463459,-0.14199140281982267,-0.6812847689913195,0.5042950676496907,-0.6115243581723304,-0.26024207862050974,-0.7378508021414574,0.8923556820628666,-0.29847732763955737,-0.41452321783099344,-0.5478350172328547,-0.23930322635441761,undefined,1490103220342
903d185fccf839df,-0.23154568426501662,-0.6749576379112595,1.6775644968511936,1.7433758620747897,-0.7056823005359566,-1.9232725305609142,1.9837644642203174,-0.3999560801326343,-0.23227668195525109,0.26993013048020575,0.13289465435794912,0.0201399458636902,-0.6955631684491979,-0.25031394751698127,-0.7097058626974052,0.49217139584703395,-0.61269575652138,-0.32281156124512916,-0.7385224980348338,0.7593285136832713,-0.35242832061213114,-0.42095198791364563,-0.4890294673997862,-0.2742321294615272,undefined,1490103221856
903d185fccf839df,-0.30223243148483947,-0.6896330274782904,1.6201435238137234,1.7061117061919175,-0.9077448139413914,-1.9503615821907399,1.9426947805801653,-0.738643301894649,-0.290819085360896,-0.03235293077895347,0.05656072342769301,0.07260295224897272,-0.6868594028520499,-0.30123482599230245,-0.774969098278185,0.4659034638285455,-0.7020933103133653,-0.40834429789865834,-0.7748569368317796,0.5090575839777055,-0.4440036591636017,-0.45372093381070117,-0.5261092730336042,-0.364140467431421,undefined,1490103223407
