UUID,iqrAccX,iqrAccY,iqrAccZ,iqrAccXYZ,meanAccX,meanAccY,meanAccZ,meanAccXYZ, covarianceAccXY, covarianceAccXZ, covarianceAccYZ,pressureDerivative, pressureIQR, iqrGyroX, iqrGyroY, iqrGyroZ, iqrGyroMagnitude, meanGyroX, meanGyroY, meanGyroZ, meanGyroMagnitude, covarianceGyroXY, covarianceGyroXZ, covarianceGyroYZ, class, timestamp 
903d185fccf839df,-0.8164439172094393,-0.8868702860570191,-0.8266298444211492,-0.7817672814284474,-1.1011879323975822,-1.2415112056842958,1.7293570639765252,-0.9610900630273932,-0.1836537096270066,-0.7367794637586285,0.06898214264808004,0.025689339549585712,-0.9740836675579323,-0.7835942721669412,-1.0676010246097805,-0.7505024624974305,-1.1608042804536458,-0.7465868076714514,-0.8778430006093971,-0.4966148917944782,-0.8069254950161806,-0.5874202635329326,-0.8411207121272863,-0.38734035386887516,undefined,1493663061270
903d185fccf839df,-0.6113137765464594,-0.8575194192389803,-0.6792492198898347,-0.6208815972487507,-1.2161424640142013,-1.2136167666622386,1.7459976607936123,-0.8223709597956846,-0.22693946315171631,-0.6123717478133709,0.06476396272597401,-0.12693572957468677,-0.7782489416221035,-0.8946943306288843,-1.0465484078693765,-0.7262551895539208,-1.151541907873205,-0.7849011204077723,-0.8815513112304245,-0.755539752444967,-0.8807330507672146,-0.4272778559798907,-0.6781140524330713,-0.37888712812528624,undefined,1493663062213
903d185fccf839df,-0.6113137765464594,-0.6162561380991208,-0.5605794630826793,-0.6341009994115924,-1.2067191804970683,-1.1279557952196304,1.6605218763844243,-1.0550916846411988,-0.19317910970798063,-0.7546992803081991,-0.01173070086219122,-0.09555935362060917,-0.7303782308377896,-0.8548834813111515,-0.7476006346728962,-0.7262551683553796,-1.0057776400548426,-0.8344216522393151,-0.743060530583102,-0.7677495938680281,-0.8379304963659391,-0.41766318145294373,-0.6777188546558273,-0.3854774127215952,undefined,1493663062774
903d185fccf839df,0.9604267528574126,-0.35738217319168086,-0.41638851140357785,-0.49207422392928746,-0.24286708506723242,-0.9902398562544759,1.5005087026454718,-1.1086440381462932,0.4729095503082375,-1.7827389455904281,-0.09932216397218842,-0.03319783444630326,-0.8326474766042781,-0.7947042754229806,-0.7160216874755889,-0.44741126099016315,-0.9239856590887172,-0.8149170912457419,-0.6518218812723606,-0.5582484985961136,-0.7587267027277677,-0.39493043424537255,-0.6866505270808254,-0.37996858076352785,undefined,1493663063752
903d185fccf839df,1.3928634194818734,-0.4284112217883075,-0.2575236922647693,-0.5736005339623697,0.0013920302088604418,-0.9553609835628766,1.4825509493022377,-0.9998644139723806,0.6090052749652995,-1.8196938153322346,-0.10065583144850593,-0.03175344067079726,-0.852230949197861,-0.8159984569642391,-0.6412847220897674,-0.4635761096191697,-0.9145827568502897,-0.8199697976459956,-0.645592609017335,-0.5359771686817334,-0.751325853106578,-0.3990867712261711,-0.6987847318514909,-0.4285393323673332,undefined,1493663064312
903d185fccf839df,0.8751869005117342,-0.2904624634058427,-0.18957585850828318,-0.4905177625312738,0.07813633333336831,-0.8868015499228484,1.429061139270604,-1.0263519558367302,0.5472400221696649,-1.7020914952349884,-0.142450721441757,-0.053998755308383044,-0.8957497771836007,-0.8372926385054977,-0.6970742425899731,-0.5484416709141594,-0.9273638271525282,-0.8314910490791069,-0.7023837843914671,-0.5933233731291189,-0.7919084253855875,-0.4012321754621909,-0.6897504720125532,-0.41116071708627017,undefined,1493663066116
903d185fccf839df,0.8751869005117342,-0.2904624634058427,-0.18957585850828318,-0.4905177625312738,0.07813633333336831,-0.8868015499228484,1.429061139270604,-1.0263519558367302,0.5472400221696649,-1.7020914952349884,-0.142450721441757,-0.053998755308383044,-0.8957497771836007,-0.8372926385054977,-0.6970742425899731,-0.5484416709141594,-0.9273638271525282,-0.8314910490791069,-0.7023837843914671,-0.5933233731291189,-0.7919084253855875,-0.4012321754621909,-0.6897504720125532,-0.41116071708627017,undefined,1493663066128
903d185fccf839df,1.3706871722050116,-0.1803970343461132,-0.11014319480192948,-0.4521008902568,0.4076688705625311,-0.8452554399653273,1.3790447237702406,-0.9924076080320746,0.6495309086480522,-1.7934622871108312,-0.14230636279098707,-0.017161156202549228,-0.8391753008021391,-0.7706325930677123,-0.6339162745730207,-0.5484416709141594,-0.8960137010046366,-0.8437440895251318,-0.7269984998076638,-0.6006332467686937,-0.8078234104026767,-0.39000042427704273,-0.6842103131186364,-0.39904872698858523,undefined,1493663066750
903d185fccf839df,1.459392264828688,-0.15486176501586352,-0.19244684362591932,-0.4197726412948658,0.6295491350640201,-0.8129203776650777,1.3889852092535457,-0.7509625792260531,0.6916128135170816,-1.6227144283773833,-0.10561190062374556,-0.09280399140843494,-0.9392686051693405,-0.7724842753862892,-0.6360215421368481,-0.48176160319079403,-0.9262104029696863,-0.8350948102858665,-0.7282466675772796,-0.5318202091330875,-0.7901115481016239,-0.3726064524803558,-0.6774647036990933,-0.46756230779084196,undefined,1493663067275
903d185fccf839df,1.9008378798699122,-0.08207196370479615,0.289889838162728,-0.40179430918779024,2.094748212908919,-0.854591239639373,1.139487514900153,-0.4685757925928334,0.50823122981672,-5.344725049373369,0.18357468755237996,-0.10960485853642005,-0.852230949197861,-0.6808267161470277,-0.4991792903705076,-0.12007277240702531,-0.639894083698128,-0.6188366430185601,-0.4569785733697942,0.4556139779379612,-0.4309900670780724,0.26221178814038004,1.1063635665305929,1.944457721423952,undefined,1493663068207
903d185fccf839df,2.323572246374404,-0.012510569515442382,0.5004335330352596,-0.28856566563761377,2.8362678280659734,-0.8043932720651172,0.9864612598325184,-0.10834014652259857,1.278771486824784,-7.228825761996563,-0.046533503191348045,-0.01718015149278974,-0.7913045900178254,-0.5002890855317403,-0.4444423410732284,0.11431768816953718,-0.42445654751014045,-0.48595602933452914,-0.40649116930738166,0.8453779662138139,-0.29689809841222814,0.4239010598419498,1.6183572852092298,1.9961313126562108,undefined,1493663068787
903d185fccf839df,3.7386932040690763,-0.05066666130530192,1.3084750517798545,-0.17783254920758026,3.481154816418111,-0.7743591700942215,0.8302821392854893,0.11412002302606387,1.659502286414522,-8.73686219264027,-0.1596466508063487,0.023206693994941418,-0.7042669340463459,-0.3419715650347281,-0.4265476367219163,0.8094067869083291,-0.09614589188753868,-0.4144329692833449,-0.35846972341807176,1.0565823110836154,-0.21570114173240837,0.49995782355881596,1.7050978791465854,1.909376010665899,undefined,1493663069749
903d185fccf839df,3.455253277551497,-0.02630536351531031,1.912991248715669,-0.12369513328356112,3.6874416102146084,-0.7416218787838889,0.7484924926928979,0.1655539306195982,1.8620307466078267,-8.92532513255959,-0.2935595499397737,0.03819068085812624,-0.5432472704991087,-0.28734734134841505,-0.40970552566023205,1.2115077816616964,0.27417610376888574,-0.38080831704597434,-0.35753853681613873,1.3270028558569944,-0.1507144646058332,0.4801204952285513,1.853545341856358,1.9001562118281892,undefined,1493663070421
903d185fccf839df,4.654156022702873,-0.019261183537853662,2.0297472272251915,-0.054643190931015106,3.989358548811803,-0.6763116243352767,0.6421107813168705,0.3777866461398481,2.4495096240414256,-8.98765633494733,-0.48482039285317763,0.055188192135146835,-0.24731924019607843,-0.17995060219591483,-0.39286339987408025,2.165234571523478,0.5443508985462463,-0.3412230090375684,-0.3324678259921889,1.58098186955263,-0.08232304051574808,0.4947825865027642,2.0982515127086314,2.0056628481707532,undefined,1493663071285
903d185fccf839df,5.844049336361749,-0.013978107010745852,2.189249930107053,-0.036858922863922006,4.230410774755232,-0.6808002094255897,0.5850593195181175,0.4174713186199302,2.3437693021536252,-9.475549600772231,-0.4309714400209543,-0.0037152771920690338,-0.24731924019607843,-0.16884062484142454,-0.3139159729829418,2.2682855415959278,0.5473859289144182,-0.3370027387833914,-0.31090439787908175,1.6392163458014721,-0.05720554125792156,0.48068032920223663,1.9058012904777213,1.9734976882641306,undefined,1493663071812
903d185fccf839df,5.564767311717178,0.05822491312613883,2.1739377341646318,0.45407136123456165,5.050780036061413,-0.6162409073792325,0.35137812994591805,0.4263319137122205,1.7020605982537167,-8.67468545138319,-0.2292321757777937,0.03432831298939325,-0.31694936497326204,-0.04940797328203014,-0.32760014220659905,2.7734377042747957,0.6092555317095851,-0.28829907163810914,-0.316278954914003,1.862158522541123,0.00749129925707243,0.4018993609008775,1.8506675571654292,1.6114080578515708,undefined,1493663072753
903d185fccf839df,5.560609823909086,0.06703002118599029,1.9372355324852373,0.6712509708255624,5.668703569624003,-0.5632157771215256,0.22434271897953423,0.710546909053239,1.6165603456796251,-8.023622142020642,-0.1483967061167882,0.07767854685401164,-0.43445020053475936,-0.035520469211980904,-0.3265475047435685,2.8744678315515766,0.67651318374151,-0.27657140953191384,-0.32149193920180347,1.9165397913769828,0.01736473731921457,0.3851352589770484,1.8602403457756993,1.6167143884405404,undefined,1493663073292
903d185fccf839df,5.398446268017843,0.09344581301342207,1.5480484291795968,0.8910860002753821,6.62445053962281,-0.5345381834617189,-0.011871715928146316,0.8236216655134325,1.0006315790908489,-5.798158278367275,0.1018262800253238,-0.0885692999773555,-0.43445020053475936,-0.07070215482328868,-0.30549487327869695,2.7653551527690454,0.67651318374151,-0.2657264069814112,-0.32797362468512764,1.9260995238720913,0.018529007114162502,0.3966269548817505,1.8834420674063261,1.6634107343863511,undefined,1493663074264
903d185fccf839df,5.598032182960912,0.2067398245628192,1.2717894936512637,1.0672182710645295,7.061129819068035,-0.5635651635922325,-0.07721976897579845,0.9523878136972609,0.6191031936965146,-4.528273787022303,0.05469981570239421,-0.16209551349057297,-0.22991170900178254,-0.06699882903845858,-0.2802316625127679,3.1573530358682094,0.8157436314244176,-0.25675097730431795,-0.25605654125692845,2.1112647763153003,0.08225326947075033,0.35406594808179626,1.758862062561955,2.2451690324557543,undefined,1493663074805
903d185fccf839df,5.660403057423898,0.33118723798849203,1.2500971260593305,1.2877374031705342,6.950044292813033,-0.5811229690801096,-0.09937062345300225,0.7738091942944767,0.7302877456691078,-4.627763103177465,0.07048057208072453,-0.22593199635346536,0.30536987522281644,-0.09662551302174666,-0.3012843381510421,2.7956642050844405,0.7790801368002599,-0.26601299899415226,-0.23049568077066135,2.0101933049398304,0.07087231590448674,0.33155836746996525,1.6056261991634824,2.2384495751892373,undefined,1493663075746
903d185fccf839df,5.2002460903297125,0.22728534949706777,1.1920382057445704,1.3179262151826927,7.22046554673961,-0.6207246937900822,-0.11442100190041053,0.8182620111107896,1.042015611203207,-3.9186200585240494,-0.0018007168144622003,-0.2659063544108251,-0.16028158422459893,-0.016078015317010155,-0.21707373866921822,2.7330255120404754,0.841180391745621,-0.20337922337531897,-0.1635628465962815,1.9619496191941814,0.12229368731394377,0.6748097966041074,1.5932056280741962,2.1307029036042904,undefined,1493663076319
903d185fccf839df,5.283406888222658,0.21026179763957817,1.204160284095117,1.3964804822488974,7.15065651405573,-0.62915654176473,-0.09925491223154197,0.8296309026557808,1.1783147236281961,-4.248214982399848,-0.027213969391181356,-0.27780764559160653,0.10518326648841357,-0.09755135094334146,-0.24338954272477517,2.5733974728399778,0.7208414567046493,-0.21579514985163262,-0.18129840905715436,1.8286432927860614,0.08765209598108868,0.6125005783352568,1.4713717428072495,2.0432960074595936,undefined,1493663077254
903d185fccf839df,5.345777762685644,0.21260997454403308,1.320916516741589,1.3201121635671371,6.952852276155422,-0.5790965327282818,-0.0661193572130521,1.0519630952923404,0.7093322236087809,-5.045637456242607,0.09705409234431701,-0.23816187235407849,0.4837970699643494,-0.10218051464976635,-0.2760211715585158,2.486511407925978,0.6800010735073584,-0.2316059136884664,-0.2077039978520928,1.7787363996284038,0.062134944196829904,0.601080426560293,1.4469254163497072,2.023575028726724,undefined,1493663077811
903d185fccf839df,5.2667750046873465,0.20967478264145678,1.294119999123199,1.3688189834628535,6.540580950483103,-0.5943810008047647,-0.015692827382493453,0.6215120408663591,1.0653814128483694,-5.204065396664935,-0.025037088656025573,-0.12221874935793837,0.03990502450980393,0.031139472619608168,-0.200231627607534,2.6562425870454005,0.8081188902576284,-0.14683491205598864,-0.0950368591873975,1.9436483617316027,0.16876363718632398,0.8397980188312603,1.7834157519868155,2.4202178573362136,undefined,1493663078727
903d185fccf839df,5.416463888808092,0.21260997454403308,1.327934635668391,1.4036485786514992,6.567858615036082,-0.6015317647442208,-0.021512587897928776,0.6192540543171012,1.0806387331190597,-5.174042319111466,0.0021152865721060956,-0.0816532241430985,-0.0036138034759358177,0.10150286974377282,-0.08338929622069643,2.979539616154973,0.9324656639747426,-0.09833515347179139,-0.09074668435919232,2.0359715867995383,0.2044614734876854,0.8486955638720208,1.9619095446001795,2.371309727099252,undefined,1493663079290
903d185fccf839df,5.556450955884605,0.219067022611399,1.3859934289146765,1.3964804822488974,6.723429776899397,-0.6455776768072885,0.01236194423440231,0.7533213352827592,1.0054174381503407,-4.998843605620576,0.0470082978086888,-0.08754530485187427,-0.30824559937611407,0.3070380076851489,0.027137092592216812,2.9451893304837853,1.0550153795346182,0.03383449676780649,-0.0149682905120018,2.0878755832475995,0.3025498551412919,1.1050902250549814,1.7085962699815032,2.102768699488062,undefined,1493663080254
903d185fccf839df,5.377655516458051,0.22317624451021806,1.3649390721342707,1.417987383048984,6.563014058490725,-0.662420407333508,0.02478777689372358,0.5191768449510549,0.9312536582852761,-4.764767086294651,0.10214179422815663,-0.13695857456757865,-0.3735238413547237,0.3283321762756328,0.10397931817963194,3.0825906144921444,1.0686262493179608,0.06300403453752061,0.004370894922411556,2.171535337707294,0.33925741612865434,1.132592822538229,1.6205338940269414,2.0202449055029974,undefined,1493663080802
903d185fccf839df,5.586943248445352,0.20673970765084984,1.5110438656452425,1.5083331466978842,6.622732814779886,-0.7007946223137979,0.11289416744739905,0.7118549419388596,1.3544489172771559,-5.363208541715444,0.0720165545461621,-0.10992903944478913,-0.2168560606060606,0.3838822314081535,0.12397938580381074,3.3755788174040946,1.180094746714208,0.13365435413052876,0.12234412330369454,2.531720374212483,0.48982463666507764,0.8855526408594723,1.569625210242677,2.2238334463701888,undefined,1493663081748
903d185fccf839df,6.2896528187705725,0.2120229595459117,1.7866646632935734,1.5170226885406544,6.339639576500457,-0.7270987198075844,0.2182021205265333,0.8211048103724196,1.4968681461662068,-6.474183299697843,-0.012151929860989903,-0.1087120642951735,0.4272225935828877,0.343145544168826,0.15976885340430524,3.500856655727569,1.2252256887761483,0.14573761029049936,0.14833727511719536,2.640002244421644,0.5233807786688197,0.8326997814799505,1.4690939848060716,2.2741342384386103,undefined,1493663082395
903d185fccf839df,6.4240966607840555,0.22258911260012731,1.5595327508555656,1.5634326350233618,5.751554855661928,-0.7572064668119611,0.35581724228443445,0.6703089822505953,1.634717479427329,-7.308040822136109,-0.009240841454032282,-0.18742794997502568,0.6491686163101604,0.36073637402370534,0.18713735382076313,3.5675366951862126,1.2237574482526263,0.15395143814041676,0.1392344239158388,2.6466543724505707,0.5255167360240479,0.8407667128570487,1.4428049335597972,2.296660116239292,undefined,1493663083379
903d185fccf839df,5.987501919759538,0.3711042578607464,1.6322659833696944,1.5330153760286875,5.316768157739237,-0.8089225656702865,0.43917157372374444,0.3799702342069416,1.780273963059324,-7.379647773408343,-0.061993027361479984,-0.25709573595200313,0.7666694518716578,0.37647550213384595,0.23134796529890525,3.5675366951862126,1.2159299929410563,0.1662500149556952,0.14607030827081086,2.643836457539704,0.5332387153936377,0.8248543714135205,1.4041609646859925,2.2719590832214918,undefined,1493663083800
903d185fccf839df,6.210650474837191,0.5753854772069892,1.6641666510145414,1.5295137632642413,4.575117974406885,-0.9175443062459738,0.6731980128698428,0.29198310500159913,2.171189940049618,-8.22996443447689,-0.20593282338817495,-0.36804019122232323,0.5142602495543672,0.47924305815375945,0.23871629501991126,3.553392208852609,1.110911064168326,0.2631567192289536,0.2953052912826219,2.832036258713117,0.6596188948626062,1.6978017840443338,1.9097313709461874,3.517246651457907,undefined,1493663084756
903d185fccf839df,6.241142215311382,0.5472087572971626,1.5793110860129165,1.4810484862629423,4.719467420986071,-0.9098974139077891,0.6985309354958383,0.5590116674465999,2.5672033050743797,-7.715179491658124,-0.08292071240225418,-0.2987818312338177,0.13999832887700536,0.5607165362386107,0.4029271208250476,3.5594542567393486,1.1834728868684725,0.3735082642415051,0.4263345680807906,2.9949364105315435,0.7785713650214358,2.0922230265346893,1.9984468846567258,3.8417617111326976,undefined,1493663085286
903d185fccf839df,6.734563915627662,0.5237281573723072,1.8791765486362397,1.5012470307338102,5.670544690270908,-0.8990524753483566,0.5944274326649343,1.3563705904171481,2.6629491838611092,-8.385713757151839,-0.17515123262143711,-0.04509361402227384,-0.07324392825311943,0.5403481796681725,0.4071376117792997,3.9272047397037557,1.3285963381846395,0.4216829671442356,0.4619133506607638,3.2096215366475,0.849206252354146,2.073159893460486,1.8869089064019897,3.7800229945671875,undefined,1493663086229
903d185fccf839df,6.816338976265669,0.5959312359651765,1.9346834892391276,1.3669061259425621,5.84468154796196,-0.9031589233433064,0.539869477566576,1.393964022579903,2.675714813297418,-8.738265281158666,-0.2078530086368946,0.04537823971943403,-0.07324392825311943,0.5107214956848845,0.35555862640674885,3.704937979194572,1.150916886017932,0.40628758268673887,0.4398594018966206,3.058085433650901,0.8047119024638352,2.0721963201840508,1.6840569281105406,3.5229016258759254,undefined,1493663086833
903d185fccf839df,7.291741261510395,0.6434794508130088,1.6322659833696944,1.4714779906460496,6.413892022654963,-0.9222633432695536,0.4358843186412808,1.603513542440091,2.355499756408627,-8.704420664181622,-0.2277109914263891,0.11657733859058593,0.1878690396613191,0.5162764973129041,0.4071376117792997,3.8968954612705886,1.3134995137830616,0.43638806312719974,0.4546576568702074,3.1310740614045507,0.8325180051002249,2.1057679586638827,1.6984514260404393,3.5106173267516527,undefined,1493663087753
903d185fccf839df,7.6576498764124645,0.6534587057810725,1.601641464416377,1.4786888141894603,6.740504040168866,-0.9246414960538833,0.38419022246098783,1.8068543132658021,2.6106210015571945,-8.69424707851984,-0.25172733508798767,0.1012993258463777,0.553427194741533,0.44961647777666774,0.4155586525856742,3.9797404906818468,1.3285963381846395,0.42220226928984167,0.45230672880713596,3.193930514343137,0.8413142992530738,2.0935521185440846,1.6842508492686505,3.4576998362887466,undefined,1493663089649
903d185fccf839df,7.6576498764124645,0.6534587057810725,1.601641464416377,1.4786888141894603,6.740504040168866,-0.9246414960538833,0.38419022246098783,1.8068543132658021,2.6106210015571945,-8.69424707851984,-0.25172733508798767,0.1012993258463777,0.553427194741533,0.44961647777666774,0.4155586525856742,3.9797404906818468,1.3285963381846395,0.42220226928984167,0.45230672880713596,3.193930514343137,0.8413142992530738,2.0935521185440846,1.6842508492686505,3.4576998362887466,undefined,1493663089677
903d185fccf839df,7.71586188285097,0.7327058474394291,1.5365643616405775,1.4786888141894603,6.873138103553938,-0.940566504698278,0.36434570666892346,1.813835887790428,2.4901849970966086,-8.249101562136131,-0.31635119345931595,0.13299210520705051,0.553427194741533,0.44961647777666774,0.47871666477602937,4.191904309125157,1.34491446174382,0.42581204728561506,0.481301513667324,3.3017966255694238,0.8763399686446338,2.0384366747391938,1.6085082535680113,3.8417716258167225,undefined,1493663089809
903d185fccf839df,8.27581180741669,0.7450331623999782,1.986362110835901,1.4476937504382563,6.739660617928992,-0.9840184612224256,0.4315162132550017,1.9084914965813153,3.36888599406777,-9.354872454807271,-0.5191049533523839,0.1890436218279802,0.6143535539215687,0.4320256220202393,0.5292429390632117,4.141388976971911,1.4239604799513907,0.4126711891993202,0.5160966533801729,3.1751752066183387,0.8685177871810538,2.224745438034364,1.6395534247094576,4.145498675677715,undefined,1493663090746
903d185fccf839df,8.228687907363911,0.6563937807716794,2.027833194790609,1.4876094424965762,6.439009697027476,-1.0112728901763186,0.47586526338560287,1.6930459363004584,3.2096037976640104,-9.568623939546114,-0.4612465882835396,0.12072222769280344,0.6143535539215687,0.4236930936766607,0.5334535772621396,3.8948749859163,1.4100509248586248,0.40871943256609405,0.526640846729034,3.0552367152391473,0.8492669291239259,2.1896794261465646,1.6485839768260924,4.192491417950774,undefined,1493663091292
903d185fccf839df,8.296602282933204,0.6082584340137562,1.930855297301488,1.6493547897123066,6.222279781665712,-1.0836004258872332,0.6031952094919654,1.6587965836164704,2.4884383537436667,-8.21797563712637,-0.5079619151802606,0.0870786564869721,0.7405581550802139,0.4385064486190792,0.6502958203021717,3.717061509673621,1.4383618212590479,0.4868046296032369,0.6900513633285547,2.9914255599483495,0.9389758165020616,2.4863919571370756,1.9497537442367758,4.436400405663442,undefined,1493663092252
903d185fccf839df,7.487169412602094,0.5031827493500279,1.6973432132139685,1.6183690126592476,5.7828953726756565,-1.1091684861276045,0.6658108912414,1.1515667220876402,2.5255686657960896,-7.480681850269546,-0.446032958683194,0.01842632298885466,0.8798184046345812,0.6162665784203568,0.8176643376293862,3.474588751973802,1.5622882204759998,0.5502607262915974,0.7552196604089297,2.846757163755417,0.9692359183637418,2.68341467260133,1.7732552515015252,4.447246054519417,undefined,1493663092784
903d185fccf839df,7.198878646573217,0.30829336078183456,1.8396198783215383,1.5576082157858315,5.469613605560231,-1.2111542246522746,0.7991183917832838,0.8796512540635212,1.4971356616149398,-5.841892648301554,-0.3151939239122301,-0.08009400476093644,-0.5780623328877006,0.8958684133691786,0.9850330610991467,3.1270440400822572,1.7284337894333865,0.7020930515937864,0.8327443223594643,2.716963668232964,1.0529766769967834,2.798511876039083,1.5190378123665234,4.4594938933155985,undefined,1493663093981
903d185fccf839df,7.031170485402555,0.30829336078183456,1.8396198783215383,1.5576082157858315,5.3884080260071485,-1.203914948780817,0.7996916894621197,0.854754379667698,1.2233173981585428,-5.638282978467057,-0.3359646212336486,-0.09212373113038315,-0.5563029188948306,0.8958684133691786,0.9850330610991467,3.1270440400822572,1.7284337894333865,0.6969380350528227,0.833478987483164,2.7098649850841605,1.049925101030861,2.8050624181425876,1.5280182277927719,4.4644572375641856,undefined,1493663095112
903d185fccf839df,7.08799716865104,0.28011664087200794,1.8396198783215383,1.575259414739135,5.335632113268445,-1.2074251121158688,0.8023267551514973,0.8024850467545053,1.2198836092175884,-5.5170690559866005,-0.32163183052735933,-0.07940311323869102,-0.5867660984848485,0.9125333405485904,0.9850330316502115,3.1371470952070175,1.7511060030662207,0.7159495327807067,0.8628236121653732,2.708063366630387,1.070626512250705,2.8605445351038616,1.4642066285368318,4.355005141664785,undefined,1493663095258
903d185fccf839df,7.200264383828155,0.6082584340137562,1.8593979593419396,1.575259414739135,5.186952361783175,-1.0593413993367446,0.6209279951977658,0.8552503340518538,-0.7181616812288156,-2.952620195732406,-0.9756544693931027,-0.041881879561331194,-0.7869527072192514,0.8838325592407698,1.0281909762163879,3.0199517235951285,1.7317106093803893,0.7044742397452857,0.9280968605219245,2.603569517581987,1.0816880342168345,2.7903872545082535,1.479139427096365,4.243311828899401,undefined,1493663095855
903d185fccf839df,6.832970445736064,1.0766967532505314,1.8759863039758904,1.708164517842931,5.443189646565545,-0.8566370243483058,0.4171522147882721,1.2335880078766495,-2.5122299718763608,-0.525096174004236,-1.21561638521113,0.032287704199844496,-0.8696384803921569,0.905126663077381,1.2250332541616538,2.8744681424635132,1.7521483994635578,0.71408764759424,1.0157668971976233,2.4203742106670494,1.1051451425548393,2.742902476973173,1.675369098612058,3.7378778763892266,undefined,1493663096829
903d185fccf839df,6.589031967228452,1.2087754785637517,1.51295777101135,1.7283925343964401,5.48307757981276,-0.808903923984423,0.35545959379269676,1.1318544450914185,-2.980517371016423,0.23952949087767175,-1.0668071024373926,0.036094984285513255,-0.8696384803921569,0.8792033048789231,1.2124017224010273,2.7815201992511027,1.7762484717521594,0.732662170829754,1.0479802144983135,2.452048812451955,1.1310639179374078,2.691057710301584,1.589738422914993,3.620571749284224,undefined,1493663097392
903d185fccf839df,6.59734887514758,1.2845002964094414,1.2966720423693088,1.9637503851124378,5.411242269471517,-0.6414060024454084,0.27002771624223426,1.5118532356806236,-4.737030128356215,1.856188550414529,-1.0430242056868224,0.07646611901383579,-0.8957497771836007,0.8477249709539945,1.1808226868569145,2.8542620322139927,1.7890419232581531,0.711909114969217,1.0826144297203213,2.4102420333479957,1.1329225285738922,2.652711757502178,1.5013024702348634,3.3285432605629848,undefined,1493663098980
903d185fccf839df,6.59734887514758,1.2845002964094414,1.2966720423693088,1.9637503851124378,5.411242269471517,-0.6414060024454084,0.27002771624223426,1.5118532356806236,-4.737030128356215,1.856188550414529,-1.0430242056868224,0.07646611901383579,-0.8957497771836007,0.8477249709539945,1.1808226868569145,2.8542620322139927,1.7890419232581531,0.711909114969217,1.0826144297203213,2.4102420333479957,1.1329225285738922,2.652711757502178,1.5013024702348634,3.3285432605629848,undefined,1493663099004
903d185fccf839df,5.8045480263734195,1.5521793693767327,1.2022461881262976,2.002217824036038,4.563135129613052,-0.5471533377652307,0.23399937396018541,1.039464879827641,-5.5166575558869955,1.82091247532496,-1.2184126945825058,0.05393930791203677,-0.8565828319964349,0.8514282967388246,1.1597700848409782,2.7613140890015817,1.714886870721455,0.7128780555567149,1.1104477435957232,2.4309683416187373,1.1497940638774489,2.5853497014195677,1.473427251686764,3.1859540614231294,undefined,1493663099719
903d185fccf839df,5.844742550043316,1.6549073447838836,1.156947420507849,1.9887986808733582,4.128132426373075,-0.5139430462120242,0.23190604922466146,0.8461052990429963,-6.174133986712529,2.1416227203995586,-1.3031099172644054,0.03747801648308397,-0.8783422459893049,0.8421699693259748,1.1008226225027453,2.7936437579948734,1.6297400944362082,0.711282153085612,1.1368047306514142,2.422853361205102,1.1588166542641274,2.5297469750804615,1.4915986758352122,3.1117218688826522,undefined,1493663100303
903d185fccf839df,4.824635658383411,2.3241047933781736,1.2571153720546073,2.068917429858179,3.0916633082649523,-0.3681210218181488,0.24849223728133632,0.6204047474584278,-6.003034794708942,3.6060306362906838,-1.5148590660319998,-0.016114762807077115,-0.865286597593583,0.8329116937162232,1.1008226225027453,2.7087781401704403,1.5963199542315543,0.6862923570134968,1.128800379045198,2.4115201055854945,1.1497736859865488,2.4452852608570423,1.500560560736979,2.9703445382633817,undefined,1493663101232
903d185fccf839df,2.8606528825087443,2.3910245031640116,1.2603054261122444,2.041257614527186,2.4671363600404055,-0.2779421947718097,0.243435121554419,0.3672831771639194,-4.998516092276139,4.187183425760574,-1.6091766313859408,0.012679787450751098,-0.9262129567736186,0.7032949286254824,0.9997698972347697,2.021771522275595,1.5111191602007046,0.6170416186265191,1.0857559989723082,2.180959184812643,1.0664946603835375,2.525171448289278,1.3265678330075987,2.8240514291011967,undefined,1493663101840
903d185fccf839df,2.1177490645569064,2.248966639794697,1.1397212556650826,2.1259408802477426,1.6110783769633594,-0.15596226690614626,0.19851540341750548,0.006563070821369925,-4.224583115072614,4.991898980772659,-1.6308575659674385,-0.019834900424485248,-0.9262129567736186,0.41443479216535994,0.9776645841334649,1.8075870871543884,1.3462909112450627,0.49966683994499633,1.0998055952004417,1.9669361932374954,0.9936389419490806,2.622601864534903,1.3385125056159015,3.075607237779193,undefined,1493663102763
903d185fccf839df,2.3492134923913954,2.258359347412517,0.9961685054002207,2.2424138738624504,1.5269516573307989,-0.04833511111814051,0.10172802272639961,0.23510894859914733,-4.6741490548034355,5.45815793397291,-1.4713721624941043,-0.018159901004299695,-0.9088054255793226,0.36721730422874166,0.9608225025207158,1.8843701252083496,1.2896761540088455,0.4211510017411912,1.0545502218628557,1.9161213243417345,0.9347199652286229,2.568831796502715,1.5333186287729499,3.252957658929487,undefined,1493663103290
903d185fccf839df,1.7559993176793174,1.909084722058475,0.6127236900010394,2.1011282963134947,1.3650033584943806,0.15863875740816638,-0.08394943191465129,0.5561560943332318,-5.04583155369943,5.860123754734728,-1.013384472423755,-0.039059961608598585,-0.9262129567736186,0.2561172457667986,1.1124015904226794,1.5247019958966417,1.267508449146246,0.3385820821417947,1.142024351663288,1.6736574025464415,0.895968855986388,2.5623277892073935,1.4623672008887523,3.5654453557858896,undefined,1493663104225
903d185fccf839df,1.3748453846267075,1.855079576055246,0.35815699499616466,1.9929693112459925,0.8162202741307378,0.24888978828664945,-0.1842186758124377,0.0746339150233942,-3.032848305720146,3.3712480606706983,-0.5284278973440026,-0.0367783197329858,-0.8870460115864528,0.2163063575967423,1.1050331134569975,1.365073900166701,1.1411577396916968,0.3470048971552127,1.110545699388425,1.5654217278486293,0.8678857490082866,2.6873868049778022,1.585651758029034,3.021851419926526,undefined,1493663104793
903d185fccf839df,0.7899470136606459,1.5046312714408696,0.09274437033227279,1.8640769548768104,0.347562776790613,0.4466468542456183,-0.32082395055243473,0.32965106165269936,-1.5230780138446274,1.9398755901093128,0.07886530894659893,0.04890689173797697,-0.8696384803921569,0.28111475309288725,1.0524014758969484,0.9993439208213041,1.1465609535338614,0.33130552972912813,1.129737952363315,1.4941115259502786,0.8578032856869262,2.7432413858948106,1.6732210293078247,3.05770478002619,undefined,1493663105741
903d185fccf839df,0.8024211333445878,1.6637122190197964,0.0174590310377969,1.9174488363517006,0.07984666367580234,0.5378458859175038,-0.42086966428200895,0.1940204834182233,0.05659250480981407,-0.19098131955102413,0.6163531087900572,0.04226208875265448,-0.9131573083778967,0.3162964257534205,1.081875236515,1.1529101382528342,1.181778195930473,0.31695507905717796,1.139764382484169,1.5229528138538415,0.8626185630408562,2.7777775884206433,1.6730063700918487,2.990585654583924,undefined,1493663106286
903d185fccf839df,0.5210601577635121,1.5562885912755517,0.016183009414742013,2.0360232993653296,0.031071887227100067,0.6120042045026266,-0.43117850309078676,0.5178420872802739,0.7657313267700663,-0.17456149359424125,0.694669217218564,-0.05311961698881984,-0.9044535427807487,0.2616721308378474,1.0271382945799545,0.8781074289125086,1.050010332052516,0.22609633574667873,1.0258143178917996,1.2817669625190227,0.7599183316573513,1.6252048307163152,0.6128803650236453,0.9372333507458527,undefined,1493663107316
903d185fccf839df,0.8024211333445878,1.565680831245494,0.00597483643030289,1.9857213864634229,0.01921247863176913,0.5802124159341355,-0.4230708111723204,0.2881442244144114,0.9033281938439762,-0.1990343612325001,0.7182528317006548,-0.032847674764608085,-0.7956564728163993,0.12372290215740069,0.915559253579543,0.8174892677522754,0.9510890478341278,0.1684918784182684,0.957973240071966,1.2492300499161695,0.7050395145824522,1.4755857460082322,0.5806567083623954,0.8524774000166991,undefined,1493663107902
903d185fccf839df,0.3478084954865431,1.5527662674628848,-0.025287756868779276,1.8893782210905439,-0.12642270289716773,0.5674807919057648,-0.44469833764094363,0.05606837970579982,0.9648844848197798,-0.10995480009646669,0.6201774801132921,-0.08281052498032725,-0.669451871657754,0.061692059278363784,0.915559253579543,0.4800476957796556,0.8788623567047725,0.10874055465043865,0.9628010403720911,1.0164363515649737,0.6505838450599511,1.4547700475167045,0.5295768733277475,0.833608600916032,undefined,1493663108759
903d185fccf839df,0.12743196700532164,1.4206880097975418,-0.03677188794203593,1.8329210353320327,-0.2561973419574021,0.5797582100893637,-0.46745667887876335,0.03622269620428361,0.9272345449820452,-0.16983155045779097,0.6258469187478259,-0.09092256989773566,-0.7826008244206774,0.045027015541981054,0.9376645372319128,0.4376149716616038,0.831068719965364,0.07623988670146317,0.9726175666621264,0.9077079281475835,0.6289727722826792,1.4543022735255648,0.47978414253665824,0.86772644737408,undefined,1493663109299
903d185fccf839df,0.038727184930332954,1.3684435580527692,-0.1739444030231487,1.8058484419261764,-0.30468411647239796,0.5913741291534794,-0.53874020174831,-0.052920260246321384,1.0215988706259402,-0.056972808348637584,0.5266204011786637,-0.07740296023551652,-0.5737104500891266,-0.09199637521687085,0.9081908060627965,0.31233724639701543,0.5965907921770868,-0.0013133404645455662,0.9459317293300713,0.6472432265469029,0.5480904929185483,1.4611580804418212,0.3095619711296862,1.072298454485896,undefined,1493663110240
903d185fccf839df,0.16901257298425262,1.1794244948337436,-0.06548243799500832,1.787280798173979,-0.22298482880686082,0.5783280641671779,-0.5479234846695326,-0.1218872639160573,1.078702865178235,0.022911672545554707,0.5615097948177469,-0.1326288737189065,-0.5258397393048129,-0.151249743183447,0.893453911029303,0.17897719574444926,0.32235698886655556,-0.042610466793851894,0.8693306440173699,0.37857115093858784,0.44943877391243237,1.318867772474507,0.18069223675143112,0.46513027368485294,undefined,1493663110800
903d185fccf839df,0.1468362912019811,1.1817725548262292,-0.10184914955342872,1.6877777594818753,-0.19493573162060227,0.5588160211636427,-0.5710631488826585,-0.30608066859755406,1.210729432226158,0.046357970502217884,0.537883829564478,-0.05789829353971091,-0.7869527072192514,-0.23735232022085048,0.8745065250415576,0.17089467250342064,0.34446730097939715,-0.05169824106503271,0.8654194268657657,0.34078336654036534,0.43712802407706464,1.3530074396692475,0.21360311673170315,0.5377770705823022,undefined,1493663111723
903d185fccf839df,0.23554114228778925,1.1888167348036858,-0.09100296575746215,1.7511514070857976,-0.16856320512415393,0.5586250209501247,-0.5794390808035191,-0.3074397892235573,1.1533320497443025,0.042926341333332486,0.5748888183479364,-0.02192694014322497,-0.852230949197861,-0.2392039442609419,0.8702960929851759,0.17291531744603855,0.3141025956799077,-0.0693988184163398,0.8606196154485197,0.30789228588241413,0.42602864795615913,1.3501528622287016,0.21277121378840308,0.5409369634293774,undefined,1493663112271
903d185fccf839df,0.4614615859402348,1.125419115006576,-0.12736951848028918,1.7003581465338833,-0.1088958781023879,0.5839997542914704,-0.6252108539962165,-0.15818364072553448,1.301152852033322,0.17973734985812545,0.5448569135360961,0.035620687299019974,-0.8739903631907309,-0.32160322141506437,0.6008220804067469,0.1304824802691006,0.10822045276909639,-0.256043335749869,0.6269051419367347,0.12461998599981773,0.21503992393564797,0.7189669002778203,-0.4088874495197794,-0.16968668735037243,undefined,1493663113229
903d185fccf839df,0.44482942636164574,1.2252118985111506,-0.1063151299327648,1.8003624774166187,-0.07928335526235938,0.5996918380228574,-0.6327768056482654,-0.032024876892296876,1.298581335986969,0.15334264852137292,0.5035162151275214,-0.0026732299751749456,-0.8739903631907309,-0.325306560150669,0.4976639918659045,0.0577406190414891,0.017643694453530017,-0.29490227791073276,0.6049561471402745,0.10199967005655448,0.18846619432759795,0.6164199429314774,-0.3987884834967208,-0.24287181043791892,undefined,1493663113791
903d185fccf839df,0.5141300912724334,1.3038721420833552,-0.07441455758927387,1.912258292347353,-0.02774172733657609,0.5818289026681354,-0.6429620438415597,-0.14760596758348565,1.3044089410202278,0.16755442631589684,0.5410673840193417,0.02087343140688013,-0.8348234180035651,-0.3438232149763686,0.4450324132037258,0.02743156672609405,-0.10089932284073484,-0.45327653467945744,0.5416420071015414,0.07164933366459213,0.07856516603132792,0.305230186466206,-0.6154707108265415,-0.24050643191006416,undefined,1493663115768
903d185fccf839df,0.6430296040497762,1.3772488999365593,-0.06675842785094453,1.8569991715049,0.0383541625968219,0.5806526356875137,-0.6381337202139706,-0.12733729262814567,1.3550792525173,0.14919819844419263,0.5291335544224864,0.027512078633788056,-0.9262129567736186,-0.338268239249898,0.4745061443728421,0.037534565321411376,-0.08079311582567242,-0.43574694722268975,0.5338545559779765,0.07763932903743377,0.08302076719241673,0.2889137620815353,-0.6387762881137857,-0.22568206026755575,undefined,1493663116288
903d185fccf839df,0.5141300912724334,1.2398873903761547,-0.10376315022089239,1.7511514070857976,-0.021724591330228357,0.5810649148032372,-0.6671378498500882,-0.1792272952140986,1.1618664772522194,0.13967835836432652,0.49294072950282025,0.06957870373205104,-0.847879066399287,-0.3530815423892184,0.3776639100591185,0.07794672929100989,-0.19872761296597774,-0.46786763746583515,0.43580124997936076,0.06170193817553727,0.022449815745149464,0.0680517670246454,-0.6650137099058071,-0.2611007080954747,undefined,1493663117223
903d185fccf839df,0.5072000247813546,1.2510407922524303,-0.0386860156779743,1.7511514070857976,-0.007468615270920319,0.5950217183965403,-0.6769259878349446,-0.08490988099366291,1.057139551877005,0.03887254982423966,0.43370091773452013,0.02269317119323916,-0.7869527072192514,-0.3512298924475779,0.35134798820782087,0.08400849453053444,-0.2646062415406614,-0.46580943054367946,0.38230363583917115,0.05164675457803157,-0.006040306028108684,0.024445995026414237,-0.6687172219341314,-0.49477010642292635,undefined,1493663117794
903d185fccf839df,0.3325623492061698,1.1964480466912333,-0.071224567065874,1.6247482597536307,-0.13074269218642176,0.5974767378559059,-0.678456534891129,-0.12230212796308894,0.8600368179326138,-0.0040014500574576594,0.40604125146085757,0.04694836693837681,-0.7173225824420678,-0.35678488112482304,0.3408217608221906,0.09209096124211999,-0.2654902769109664,-0.4616676856997917,0.3521403843761471,0.06527437715559331,-0.020204835450078906,0.059531266990021835,-0.6702465643031172,-0.5160754106621458,undefined,1493663119527
903d185fccf839df,0.3325623492061698,1.1964480466912333,-0.071224567065874,1.6247482597536307,-0.13074269218642176,0.5974767378559059,-0.678456534891129,-0.12230212796308894,0.8600368179326138,-0.0040014500574576594,0.40604125146085757,0.04694836693837681,-0.7173225824420678,-0.35678488112482304,0.3408217608221906,0.09209096124211999,-0.2654902769109664,-0.4616676856997917,0.3521403843761471,0.06527437715559331,-0.020204835450078906,0.059531266990021835,-0.6702465643031172,-0.5160754106621458,undefined,1493663119561
903d185fccf839df,0.3159301896275808,1.088437287036898,-0.07058652448722788,1.6239251155121808,-0.12772898703721378,0.5608634246201801,-0.6844814202731391,-0.3999427358529386,0.6958419048489797,-0.02610660665289418,0.47056160709895245,0.019189702513527123,-0.7303782308377896,-0.3799307773615948,0.31240071128950764,0.09007037282894514,-0.23217838438821925,-0.49319307861161904,0.3035545286636537,0.06527437677864877,-0.051661350139965076,0.022624421877929297,-0.6810960627905539,-0.5419269568117384,undefined,1493663120231
903d185fccf839df,0.29098167421641935,1.0802188432392599,-0.024649777824370507,1.5398318990768853,-0.15833922110361298,0.5658922523040055,-0.6677190374139732,-0.3347446546824926,0.6032266382429773,-0.1616128525096457,0.4120450048197408,-0.018064612982613353,-0.7782489416221035,-0.40492820698303617,0.24924266965021732,0.09007037282894514,-0.23918624171359412,-0.51893016145078,0.22684848878379738,0.09600967292015028,-0.09349136219204779,-0.2948776063427994,-0.6481719064860171,-0.5285159468845072,undefined,1493663120811
903d185fccf839df,0.2715776950738572,1.0626083932956183,0.39324781200000486,1.330053664098209,-0.13809696822761916,0.5724770102722521,-0.585742725657521,-0.09459462197684049,0.43470482835210517,-0.16002774565522995,0.3754627871957996,0.036614102156700794,-0.7042669340463459,-0.43733244358343226,0.20924271109547074,0.09007037282894514,-0.2741398305034343,-0.5353008203087083,0.17020230809749656,0.08213567331726217,-0.12606880616323887,-0.27939240376394503,-0.641101012113871,-0.517024981322861,undefined,1493663121718
903d185fccf839df,0.3658266683633479,0.952249807472736,0.4640669803124326,1.304642909995658,-0.1452146701221205,0.555629623156717,-0.5252019600848351,-0.07426264886333807,0.3387508007834825,-0.15720474322648043,0.3539151563698456,0.04323240225380721,-0.7477857620320856,-0.448442407987148,0.21450573644148035,0.025410978312919198,-0.3089269602512397,-0.5333186086885346,0.15347293326689304,0.0544030741050981,-0.13856034927094582,-0.29651025256598224,-0.6286989538723022,-0.4433458524556231,undefined,1493663122270
903d185fccf839df,0.3561244372541986,0.8888517200277488,0.5157459513475117,1.219059990035791,-0.07865592319182724,0.515713448210833,-0.4582760261374575,-0.21691441154541727,0.3629592681878052,-0.21689275968473157,0.3696231356000906,0.05612094374388972,-0.852230949197861,-0.4919566089912599,0.2102952307627607,0.03753460771849368,-0.3281676008895251,-0.5302281314929574,0.09129227513432125,0.0583450765836037,-0.16525193083711903,-0.30273425478763083,-0.6251625103729141,-0.3942269628870534,undefined,1493663123210
903d185fccf839df,0.4004768627971027,0.8624363958481944,0.7167194840471316,1.001382043181599,0.009348503686095416,0.47804265815127656,-0.39321988622237847,-0.30433593092600775,0.1276837434051709,-0.2573024132285336,0.34553989836586646,-0.002917458674565383,-0.847879066399287,-0.5586166673798199,0.16187411360589887,0.053699470479860935,-0.3033184422825426,-0.5442619351692847,0.010283198669577436,0.05926898286612467,-0.21020916350188107,-0.2620138286416083,-0.6247546139272597,-0.3431652143724213,undefined,1493663123734
903d185fccf839df,0.37968680134550536,0.7737967803959569,0.8934488282785393,0.8182976695210717,0.1344122928345372,0.4720914544897676,-0.3123664995464838,-0.1213499614017986,0.017695602002475053,-0.19146660606605317,0.3109594981293769,-0.05746491377536096,-0.6999150512477719,-0.5438033253881759,0.012400330078931715,0.06582307162071388,-0.3251270776565578,-0.5354718090516213,-0.092353019939708,0.03506262702843138,-0.2629324416678162,-0.21506251269664234,-0.5452807517711176,-0.40908654132005673,undefined,1493663124737
903d185fccf839df,0.5543246839531486,0.8436516820843714,0.8934488282785393,0.8162143164847576,0.5772526899799427,0.38250192903145813,-0.2946731661629821,-0.08575981569313677,-1.9034845099318418,-0.32986620425109586,0.2563466845550539,-0.01167498005407022,-0.5954698640819964,-0.44936827181029193,0.04082140906054988,0.1668534250152671,-0.3106215903154759,-0.4903812485183241,-0.07532977870361152,0.14665516369512174,-0.2300833244340227,-0.04538114096582842,-0.23832590859753539,-0.036528249981498825,undefined,1493663125274
903d185fccf839df,0.9992353667453219,0.7338797605237025,0.8487878808689061,0.7837645582068501,1.0053742634715934,0.25639691515811974,-0.23430070783806467,-0.27535633444172036,-3.1820969361563614,-0.38709706124631266,0.08031818018620542,-0.05847194065244437,-0.5301916221033868,-0.40585409670772915,0.02924242641614836,0.23959535690468242,-0.2534558775901501,-0.4037085804027678,-0.10695536390289478,0.3141132592024071,-0.17596937258491377,-0.12322552964435497,0.15817595581317337,-0.14636533546130875,undefined,1493663126218
903d185fccf839df,1.1503109542724779,0.8207579802456678,0.8143353605806615,0.772933919988085,1.1500940232074723,0.15278303695915652,-0.09415571559005935,-0.27609753683455224,-3.2380980161700528,-0.4085843272001602,-0.3333213405069264,-0.141802780286447,-0.36482007575757575,-0.4299257143091248,-0.05602086942657647,0.21332749554799785,-0.2832952933999734,-0.4033286039094676,-0.1542817934557231,0.2960662813547563,-0.20224328436475875,-0.10123039571562914,0.15326547101320806,-0.12918891679111796,undefined,1493663126779
903d185fccf839df,1.0366575877755082,1.2504531926944622,1.021051117652503,0.65729226136376,1.1360231900269435,-0.02697832690683572,0.1073137224188662,-0.5344811456118026,-2.9362754748824162,-0.875630312371653,-0.7846427522399253,-0.09128423010798158,-0.1863928810160428,-0.4604782750663313,-0.15075782881423885,0.15675046881703208,-0.2974239294220472,-0.4187999856953661,-0.21168363042628421,0.27466244215749347,-0.24714530793134648,-0.03073274925210274,0.18637005898749295,-0.05572071780922,undefined,1493663127689
903d185fccf839df,1.1419947364615444,1.515784205669268,1.0829381663706652,0.6177521109175415,1.0854484171946646,-0.18701802340203216,0.31951540330648376,-0.6523614904440981,-2.617178818608239,-1.1814941562755321,-1.0029113491524257,-0.04980159520461223,-0.24296735739750447,-0.5512100028593852,-0.20338945164982034,0.11229702909455848,-0.34626288210060574,-0.45114232763288376,-0.2831490581765256,0.25159557019237855,-0.29607251931818196,-0.06455587263013313,0.1702082607319612,-0.028790846302691422,undefined,1493663128243
903d185fccf839df,1.1613990606582039,1.5063921995232645,0.9859603959500189,0.45391365760199004,1.628306943264983,-0.2663309502060487,0.3833986523877041,-0.4552330282297577,-2.182019342760055,-2.193741076764646,-0.7905369088726472,-0.05863279567453762,-0.5475991532976827,-0.4632557499787921,-0.1433893665730246,0.22343055067275824,-0.29603149121665345,-0.4068307216246487,-0.1634826027130943,0.5143084529863767,-0.17977399179479692,0.33936603664171816,0.7150401808431751,1.8517242495551254,undefined,1493663129277
903d185fccf839df,1.3498970072371852,1.420100877887451,0.9680960932272504,0.495279715205931,1.7741375572007356,-0.29965770499858824,0.3826438980407315,-0.5952144888131871,-1.8092586108795874,-2.5437772505187963,-0.7165624752434501,-0.0045823512832503235,-0.5693585672905526,-0.44196154253598446,-0.15181046627726946,0.2133274814156371,-0.2942404491724985,-0.38436776996354277,-0.14093188223017647,0.4968466157156646,-0.16197817116161264,0.4909832436260623,0.723567359507773,1.8255678555708112,undefined,1493663129798
903d185fccf839df,1.8100536982880928,1.4647140177446767,0.9680960932272504,0.5582520056585752,2.023750858315693,-0.27614636678621174,0.3827043837659084,-0.261728578787192,-1.4461415550325487,-2.7638057954126896,-0.829832375753905,0.05348268654468257,-0.517135973707665,-0.3780790367645325,-0.1265472407868728,0.2901105901314021,-0.15055174556520132,-0.30638390189663145,-0.12154372022681426,0.6661525196819875,-0.08857280818737837,0.536881318266965,0.9317949356285826,2.114544936107228,undefined,1493663130748
903d185fccf839df,1.7892634988148564,1.4154049917264189,1.3094322585998577,0.5808788422366977,2.068082210026835,-0.2748978913725098,0.3728925765350924,-0.13169455967338078,-1.5456444729285754,-2.5057928343414875,-0.33961216244540327,0.1512575239439383,-0.19074476381461675,-0.3484523786827935,-0.1223367351081531,0.3345639591920719,-0.14125950399812354,-0.284389587879406,-0.1019456537136401,0.7295017256211659,-0.065930401112636,0.6055859789003893,1.023114427339395,2.2372031437880358,undefined,1493663131350
903d185fccf839df,1.7061027009219114,1.5926834042471085,1.6998952564600782,0.6672908644441814,2.1858637210388343,-0.22381767141888476,0.3337479150535796,0.24550365561237864,-1.3340210565529342,-2.641954105671474,-0.02796451493588546,0.28618027782858474,-0.0601882798573975,-0.22809395395567705,-0.09391564140206735,0.5305629431387361,0.07149360460651008,-0.18749554866853899,-0.06507246088903319,0.8513342243228587,0.012029582127376143,0.6301953865024046,1.2393598059003224,2.296224333525775,undefined,1493663132320
903d185fccf839df,1.8488623466814116,1.6085329261083552,1.7707145836080993,0.6465897264811139,2.201045409187437,-0.19562455950914395,0.2933856517204487,0.3805533502216225,-1.4739869403310388,-2.583410231588225,-0.26333240955588255,0.22742627514893302,-0.06889204545454544,-0.18735727966712412,-0.0739156179512913,0.6315932400038462,0.13064878702041222,-0.1576927166639657,-0.051848488564561764,0.892602057526565,0.036681200325843454,0.6168534577158826,1.2790533327310658,2.29290817156244,undefined,1493663132777
903d185fccf839df,2.2411041100764697,1.6766266658904363,1.976792202799939,0.7697318055895352,2.2935241072372596,-0.1619437565246988,0.23661866094335407,0.6279060204860615,-1.4216295854577534,-2.846854612011352,0.1857964164858942,0.19708732248227054,0.07907196969696971,0.03576871403068035,0.031347671893274406,0.8720456354082625,0.6810432224453761,-0.02345964427184542,0.020407578796392982,1.0693146191913245,0.1511018456036812,0.7500933519085726,1.4702054633113515,2.669024531665688,undefined,1493663133715
903d185fccf839df,2.297930793324954,1.9202383577586895,2.0303851745024817,1.058555893099411,2.238979052167304,-0.1239329020451354,0.20061661672867678,0.8246748461446638,-1.2822112592921384,-2.603018464296304,0.01599763185347042,0.19154679961537233,0.005089962121212133,0.25796879210224277,0.07240035625785712,0.9831791004570192,0.7984230004569091,0.05544883469037168,0.07192509722631364,1.167310326011492,0.21991614384145747,0.9018256365086912,1.672533596610714,2.7598627259259456,undefined,1493663134269
903d185fccf839df,2.6361184521545145,2.415092234998958,2.257517118707608,1.153867036553177,2.357861137453641,-0.0770103781703596,0.18677857816085122,1.3698989204181935,-1.314779204169924,-2.4266430678446245,0.04452247229432026,0.151932008183472,-0.14287405303030304,0.5005372914981162,0.07555825392248136,1.0660240450741125,0.983462823053132,0.18189872135708038,0.06765004595194171,1.2529872771208213,0.2936421839919244,0.8082071163890455,1.719251467956007,2.809430353143182,undefined,1493663135226
903d185fccf839df,2.6596806782241824,2.466162656747488,2.4489206163027912,1.2749583692441926,2.357295423770435,-0.048200018932045396,0.20749356191100776,1.7327598498113788,-1.64270603466708,-2.479071433903815,0.05071599896871277,0.12603578803506818,-0.26037488859180036,0.6495966140900241,0.08082142651316682,1.1933223022224326,1.1484383282578097,0.23501311986863335,0.10366263167489159,1.3410047919110615,0.3451114567684049,0.8766054845852751,1.7571329792225767,2.9905752546116706,undefined,1493663135769
903d185fccf839df,1.657592373505999,2.8318733513130203,2.3902234945737915,1.4419721176896145,1.6812782705498504,0.1698866481417494,0.1707052017795871,2.2174617654246895,0.2688236224544407,-1.2158654382887237,-0.23283139791747598,0.10915168035634783,-0.5911179812834225,1.1773218723580916,0.20292684214388435,1.512578324093985,1.3604560452787435,0.39358369735430077,0.14625222047830652,1.4993008096045706,0.4575551814257516,0.9686858232170235,1.9162198388945915,3.0536853937501838,undefined,1493663136737
903d185fccf839df,1.7781755304507694,2.7573222127276655,1.878538378989119,1.4623674467257355,1.5833790052214678,0.29657163807317516,0.03397895779271508,2.4135769711105097,0.05288491028232851,-1.0954494209118846,0.03830334880150652,0.07290316161784342,-0.5954698640819964,1.291199470486368,0.174505733713331,1.5085370907381923,1.511658415817285,0.43900990218059655,0.1329442874754494,1.5345324535395632,0.4798316681952607,0.9322350126533429,1.977770723303365,3.075857556009989,undefined,1493663137266
903d185fccf839df,2.0456760970064094,2.7379506008776904,0.8934488282785393,1.815113905103281,1.7271833398354217,0.44878975201017685,-0.17046479220551886,2.5978724795537773,-0.27100479071158423,-0.5308660539843086,0.8169426475748894,-0.09316279467194313,-0.6825075200534759,1.4846987024962373,0.26397949106137275,1.506516587119182,1.5841658807572494,0.5937427135775611,0.20605396359791905,1.6173144981435232,0.5870771531966943,0.9057254875922044,2.0463367691691356,3.1810062860049904,undefined,1493663138225
903d185fccf839df,2.0456760970064094,2.2836009923317366,0.488949497263359,1.899693845980245,1.7089879415743188,0.5050781471817953,-0.2569380754547874,2.5276299951490997,-0.5843069120628556,-0.2412925479707025,1.3311296412150104,-0.07405909314846333,-0.5867660984848485,1.6235737431967296,0.39976916426255305,1.617649967373774,1.6905310430082652,0.6759696519594188,0.27134120578420395,1.668606719803943,0.6572366400441776,0.9568533464781328,2.053103582460045,3.277668962755779,undefined,1493663138796
903d185fccf839df,1.747683237890023,1.7006940469894745,0.03468532294903792,2.083922812697283,1.3066526076313458,0.6240230752969272,-0.3691860874690164,2.5104009581530207,-0.5768579939557865,0.05224422155177095,1.655333892575175,-0.14022204227790638,-0.38657948975044565,1.6717171467595902,0.43345341583485664,1.8217312060466122,1.708786795052899,0.7883477382012858,0.3214803515293917,1.8268719439586745,0.7538936458352334,0.7946866955704691,1.987513899596862,3.171207859298437,undefined,1493663139709
903d185fccf839df,0.8772660584806967,1.694237232746047,0.029581236456818358,2.083922812697283,1.1831316675692503,0.6584818429596843,-0.3689704441087582,2.676037633278633,-0.5991492098432858,0.12169149031120734,1.6103745988151494,-0.08998178496687338,-0.49102467691622104,1.6754204984459693,0.4366112840505457,1.817690000955541,1.70636005411799,0.8224379741606401,0.3476764114516711,1.8477060397320633,0.7813670735713332,0.7117153101668117,1.9081122019176926,3.1560324516588554,undefined,1493663140260
903d185fccf839df,0.7954912738859673,2.4602926236782436,0.07488003584238564,2.421693574843151,1.2337064396333286,0.6273189548630153,-0.33991108868174175,2.6879562190400597,-0.4839175242843725,-0.005214191489420091,1.378076225670099,0.09742677201370457,-0.38657948975044565,1.7763363009180457,0.4966113985762766,1.8217312060466122,1.8176448801176277,0.9078947183248137,0.41720372112709525,2.0183208172558773,0.8719273063193596,0.6178097322933248,1.895867457708352,3.094029858346522,undefined,1493663141203
903d185fccf839df,0.8620199122003235,1.7711360805879797,0.07488003584238564,2.3193480871263104,1.2388492875043937,0.6717817968613786,-0.37840881695628253,2.838461762927395,-0.19925089502368706,-0.29261347940964616,0.889898179430587,0.02710624397690655,-0.3604681929590018,1.7985563074301245,0.536611504375699,1.8742672962013613,1.7762472449179967,0.9818761680140329,0.463606570530897,2.110742287416831,0.9358276632147042,0.5360567601744332,1.8816035621217457,2.984307511009577,undefined,1493663141757
903d185fccf839df,0.7899469446498265,1.80518295047902,0.04808354999111427,1.9731183173413283,1.1829979605515848,0.5507941270109072,-0.3601053683017361,2.0162532703966454,-0.4073575532601551,0.2859946048401678,0.375115777457061,0.03364521013688921,-0.3735238413547237,1.738377321705121,0.7681906860807668,1.8581023062487472,1.4533262233382842,1.161187134116399,0.5399767603750888,2.2190549527533214,1.0683969395683657,0.20720522707517575,1.5432290512121334,2.7496508438677187,undefined,1493663142776
903d185fccf839df,0.7954909978426895,1.679561974704982,0.08827835818581801,1.9676960275137028,1.2177944710340471,0.5818056169091693,-0.3463357078729198,2.2967400743657755,0.3786459510521026,0.7119509703633566,0.1942922069764802,0.15107680634990897,-0.33870877896613194,1.793001279900556,0.5966114716567541,1.862143483075097,1.4892165899491914,1.2110020694481844,0.5233523378789133,2.2039182791160594,1.0860429364763955,0.22528225883596076,1.6060085742377097,2.689319265426207,undefined,1493663143349
903d185fccf839df,0.7095581733533128,2.1638496988910347,0.2197086171275904,2.0020393336970854,1.231957873861499,0.5325608405452322,-0.3423883694040713,1.977911407706359,0.43729754534435233,0.6787621510295895,0.27842946000633084,0.07384622640893751,-0.5084322081105169,1.8800298632196233,0.8250328734929383,1.7429276361089194,1.5100415577639588,1.238873354954416,0.5757724433276064,2.0629301097558503,1.094029183053244,0.3539691268042641,1.5260319347531122,2.870149674286829,undefined,1493663144222
903d185fccf839df,0.8938982180592858,1.7470683487530334,0.34603488487849926,2.1478519216787233,1.3249302930831774,0.5661740905551591,-0.2895082311906055,2.4756479620439307,0.16044603609367986,1.5546207967972547,0.41630291360010435,0.09369852399470394,-0.5301916221033868,1.869845684934404,0.8513486775484952,1.7429276361089194,1.4018049798018444,1.260291370371696,0.5852111418425353,2.0795142363765513,1.1115606635098334,0.27110742625444395,1.4337485642198222,2.847281358792457,undefined,1493663144794
903d185fccf839df,0.8938982180592858,1.8850169902235288,0.2197086171275904,2.148322911227587,1.2878812109942603,0.5727658376259608,-0.35425668636427166,2.2382505411487337,0.4400469285726733,1.4765937891137566,0.2222184248405231,-0.007071400382231546,-0.6476924576648841,1.813369843683387,0.9608225025207158,1.8520403148914504,1.301595111216631,1.341954679728382,0.6337550157660925,2.1620037098304534,1.1820126574471788,0.11837638670348011,1.3609539657493754,2.8313728276922068,undefined,1493663146686
903d185fccf839df,0.9271625372164638,1.8850169902235288,0.2171565738814806,2.148322911227587,1.307619463877151,0.5692370394674895,-0.3514953899367799,2.22215968146842,0.43632806132815205,1.4397360141276347,0.22833687099105507,0.0934450300720621,-0.691211285650624,1.8198506184791285,0.9439803914590316,1.825772382872962,1.2936840815704649,1.3568180991094971,0.6400661389688751,2.1751539824300545,1.193098323084586,0.11064233594436995,1.3451628096812798,2.810253013254773,undefined,1493663146787
903d185fccf839df,0.9230044973218166,1.7470683487530334,0.14697538461346166,2.1532742115063486,1.355849096480319,0.5473608246681285,-0.3540042246016119,2.101628082992782,0.4399736599300455,1.259328146061448,0.23068306617680553,0.07238559161509965,-0.7216744652406417,1.782817231123082,0.9229277599941601,1.8520404844797795,1.1445312111330321,1.3904333640826536,0.6561937877949335,2.2184544107557658,1.2202548484392894,0.02356563602113599,1.385020654808733,2.750676589522235,undefined,1493663147257
903d185fccf839df,0.9008281465287256,2.050555453517699,0.14314731974429698,2.0287677482804565,1.4170387113930099,0.48549157343771837,-0.37992885359615863,1.6758355415563828,0.38483005778248525,1.387092097169966,0.1720280975785238,0.04588929153247624,-0.6476924576648841,1.7643006281004807,0.9555593299300303,1.862143483075097,1.077774101360558,1.4960921959201083,0.7351108178136679,2.319791578985783,1.3119260503499168,0.1535025725142262,1.4736675450800396,2.8440224131942946,undefined,1493663147780
903d185fccf839df,0.9008281465287256,1.8638844502911587,0.1801519150457701,1.866926339683757,1.3961381727382498,0.4469799359054391,-0.32733273535159624,1.597103572055798,0.3212194423745073,1.1825186186007006,0.27030904119594096,-0.041159051224959185,-0.5301916221033868,1.4106318112271734,0.9692434549802849,1.7004948271967029,1.049262237636567,1.6332320913370808,0.7930024324631555,2.4097338991337134,1.4058362681941197,-0.0363502536358405,1.25584386955294,2.7378713203400498,undefined,1493663148710
903d185fccf839df,0.8869680135465681,1.785224440542893,0.0570157013524985,1.8399485330266931,1.285001214591168,0.46250664706047545,-0.4038574587501731,1.2958965630926302,0.38504723522937406,0.9918684409235394,0.39579672908370767,-0.06491784106554575,-0.39528325534759357,1.356933496691715,0.8366117825150019,1.6277529659690915,0.8419334006141886,1.6795005789403668,0.6989932822092318,2.2274470975518605,1.3484992769360273,-0.08315005254040113,1.1464217095048956,1.3631672019180003,undefined,1493663149247
903d185fccf839df,0.886968151568207,1.6807360047012245,-0.012527508871111696,1.5622961644858395,1.1796345283755978,0.4547432938024525,-0.3666667418088748,1.317286513211882,0.5981353769245027,0.7299203198797523,0.49199696505795376,-0.1627405066252075,-0.36917195855614976,1.3217520959974474,0.7218748732989014,1.5610728699810044,0.8852506674226996,1.7588840252954852,0.6621900592856904,2.2316816739132723,1.357539512812382,0.07799770629906261,1.0982723318589318,1.3605874606771342,undefined,1493663150227
903d185fccf839df,0.8869680135465681,1.5809429873727114,0.06403388381353775,1.50491768758644,1.2327498638271928,0.4948854024132555,-0.3570285028260404,1.6442064626877824,0.6656411281750576,0.7948040774592342,0.42634652485158836,-0.22266052506767528,-0.26037488859180036,1.3486010719543329,0.7218748732989014,1.565114046807354,0.9763761261687519,1.8003964728226927,0.6764215714466103,2.2425991734309405,1.3797897737312155,0.2605868469416998,1.2883010053520758,1.6194004799625616,undefined,1493663150763
903d185fccf839df,0.9160744308307378,1.565680831245494,0.05382571082909863,1.5256906952926674,1.1863510831323085,0.48674238793897906,-0.3611336298955282,1.475607418341995,1.0266182134079775,0.8503869508075169,0.41381052540710817,-0.2210386635388753,0.13129456327985742,1.3698953571017878,0.768190715529702,1.6439178428628194,0.8874885782996144,1.8047408714711537,0.6497287385332079,2.2191781387014147,1.3731087842244711,0.27284922332083505,1.2634989562864716,1.640685178220998,undefined,1493663151695
903d185fccf839df,0.9133024042343063,1.5950313473276247,0.11379872711267847,1.6173248676599796,1.1660265486490409,0.4794541955400695,-0.3330262636988046,1.5081949973475737,1.323059798702899,0.8481323133800379,0.3519212073962018,-0.12785355414785543,-0.09935522504456328,1.39767026163569,0.7355590572470262,1.617649910844331,0.9951331169492291,1.8064064352319842,0.6413815429799372,2.2539940263459957,1.3704157392625447,0.4356737889081652,1.3863624063004314,1.6948395525944633,undefined,1493663152280
903d185fccf839df,1.1350646699704656,1.280391308334561,0.09465833923261777,1.4664635490364728,1.0691970015261472,0.48851959318246474,-0.31087803804301295,1.5504335243935277,1.1908542001725395,0.9759370412729732,0.40439760596319135,-0.31656329637358355,0.3445368204099822,1.3569336521010096,0.7018748056747226,1.5934026802979036,0.9040076582031769,1.8174067605090842,0.592788691655511,2.203117562052973,1.3536028485077873,0.4466023143099349,1.3087991155636574,1.6161899902133856,undefined,1493663154815
903d185fccf839df,1.1350646699704656,1.280391308334561,0.09465833923261777,1.4664635490364728,1.0691970015261472,0.48851959318246474,-0.31087803804301295,1.5504335243935277,1.1908542001725395,0.9759370412729732,0.40439760596319135,-0.31656329637358355,0.3445368204099822,1.3569336521010096,0.7018748056747226,1.5934026802979036,0.9040076582031769,1.8174067605090842,0.592788691655511,2.203117562052973,1.3536028485077873,0.4466023143099349,1.3087991155636574,1.6161899902133856,undefined,1493663154839
903d185fccf839df,0.8135093777519526,1.0150600615358165,0.02830521483376347,1.4010044597268474,0.8750441832277539,0.5408086827075139,-0.3524973472353562,1.5619180174982823,1.1812567466261077,0.8565720106369901,0.6145796415080298,-0.3934825611897757,0.4141669451871658,1.3967445920741641,0.706085355526845,1.5247019958966417,0.981290586930012,1.7629941085713488,0.5569790130870782,2.161911321123273,1.3042892991702006,0.6193532117657488,1.4305970208977137,1.5429834199154133,undefined,1493663155229
903d185fccf839df,0.7469806014159576,1.5099145233359315,0.10359058589535802,1.4044285129444363,0.7124478861080769,0.4728857417665928,-0.3006875371656961,1.0495559066288387,1.4126096991453256,0.7054769953659078,0.8214993669480475,-0.44970008410247897,1.0974125445632799,1.2976802323313352,0.5229272026318336,1.536825582905134,0.9907451749914706,1.771239602086423,0.5091278229203622,2.1397221583677024,1.2855828770357176,0.7533729252493745,1.477791882661439,1.62291483996396,undefined,1493663156212
903d185fccf839df,0.7303484418373686,1.3079811301582356,0.09721047778008357,1.3353680269683161,0.7516981082954689,0.47470487547874757,-0.3465513535675965,0.9270066807381372,1.0514738297479427,0.788934515505907,0.3620757474603898,-0.4845520818947284,1.110468192959002,1.3495271041375458,0.6208220596841202,1.601485090480046,1.0125028911577256,1.7960014104365658,0.5374928948872881,2.183546136557974,1.3132985936623116,0.8500066574476215,1.5675945924911372,1.8119964585271493,undefined,1493663156892
903d185fccf839df,0.7400505349248788,1.0561513452282523,-0.0004053034520902387,1.1662070496959624,0.5977212279227127,0.49285197820560156,-0.4090066144414311,0.7086962627646931,0.8063299472670611,-0.3056182674578109,0.022309010502236274,-0.4436327472051056,0.918985349821747,1.2902735807616752,0.45134817908403907,1.5913821484141717,1.0131643850567202,1.7042623867645261,0.46519484743794026,2.0471621076499673,1.2186359026333071,1.0156009061342817,1.615896154984629,1.8560989999882256,undefined,1493663157660
903d185fccf839df,0.4891819899261887,1.3461372219480952,0.10486657575129424,1.4312811763792248,0.30123600534143763,0.461498086561141,-0.28682845682300195,0.6780227413396196,1.025910509935666,-0.12733876673432803,0.3237326017123278,-0.36490930813465705,1.1365794897504458,1.3300844689317315,0.3913481234561785,1.6701857183518647,0.9332962090175925,1.730575774648312,0.40340600966232754,1.9685376450666054,1.203866448133381,1.1979544827627588,1.7924894324602558,2.083714321142594,undefined,1493663158219
903d185fccf839df,0.672135745290668,1.1530089368302505,0.12209286766253526,1.229191860699265,0.317765128070233,0.5331687742892625,-0.3869109826616635,0.6452621061455884,0.7907362957004787,0.24705860173650168,0.27622420425127203,-0.3766831911499908,0.26620293003565065,1.1495468901195423,0.17661096446598948,1.4458983129000627,0.8103198442426481,1.7337612397315445,0.32730869607238355,1.8883887310933734,1.162162296097742,1.6323811212291581,1.8362991132324233,2.406232845141295,undefined,1493663159151
903d185fccf839df,0.7982630934499404,1.2927185063831408,0.10550465009705903,1.3308002387681608,0.26584293145257293,0.4435443018105053,-0.3488603172441462,0.09904731645217803,1.1441622290977458,0.43747339616514785,0.5393181724164123,-0.4431134243962529,-0.029725100267379668,1.0134493761346088,0.012400227007658634,1.3125380643944458,0.48147203195212257,1.69591556765105,0.20606096075746816,1.8134752925297974,1.0970234882562353,1.4579090064196876,1.6380401551458164,2.23386059056939,undefined,1493663159719
903d185fccf839df,0.7954909978426895,1.3109158544129345,0.12273087847406271,1.4412645360100564,0.34859136079618497,0.4476926725913617,-0.334038730519613,0.3175761473902168,1.2770046717030026,0.09425579656267244,0.41744702988358545,-0.2943752780837128,-0.2908380681818182,0.9171624913042407,-0.06654718515901221,1.3832593937383255,0.4684486896523894,1.6511099900317052,0.14027694363483464,1.7145402792988742,1.0457262860178131,1.23853476476096,1.4622512662905918,2.3808923356455804,undefined,1493663160653
903d185fccf839df,0.945180779104088,0.8054958241184504,0.17696186098813288,1.2409892660293873,0.29733773306765604,0.48077485982336,-0.3761577019117582,0.4192794799076179,1.4850557422416057,0.0835855362296833,0.3716795837133596,-0.3649983324419504,0.4533338903743316,0.8375406631610298,-0.20759995732854,1.2377756712831025,0.3411778079188073,1.5680534333317533,0.06332601839612273,1.6741039563470121,0.9727152903740431,1.1118665786207467,1.4032623415212406,2.115097144265062,undefined,1493663161215
903d185fccf839df,1.0976423799294597,0.984535515457443,0.07679416357832401,1.3024802827387125,0.38809872870439704,0.47061238368994734,-0.3602947138667328,0.26450946583463164,1.5220036820835727,-0.3682663498460014,0.2437848447281425,-0.31211374816097587,0.45768577317290554,0.7245889288558972,-0.19391577338041519,1.4378157331295909,0.26650897375852145,1.6367975347905432,0.136218793925834,1.823869234038208,1.0451371793868536,1.1019074016341617,1.352480644074205,2.360450456910789,undefined,1493663162212
903d185fccf839df,1.090712313438381,0.624107605139095,0.024477213498836154,1.0243087372176145,0.394990146956493,0.5730523234493929,-0.4035392444475591,0.8687452011238012,1.3536911678909662,-0.468717012747017,0.1787009466391398,-0.25199688145637483,0.42287071078431376,0.8514282967388246,-0.14444203348499038,1.5287430031346623,0.4509794016892591,1.5652669381303108,0.13065632640997377,1.7332031871427747,0.9967754146137268,1.1655157039276043,1.4552726184245308,2.2458890285314173,undefined,1493663162721
903d185fccf839df,0.9382507126130093,0.8953090019190534,0.14825143800363522,1.107620013050581,0.5575041473129492,0.40163663170551067,-0.3294602419160397,0.09593681924764194,0.6355257574627273,-0.9128256759177877,0.3062199295322374,-0.24285637505711702,0.42287071078431376,0.845873346913903,-0.2676000718542709,1.811628263980738,0.33487801896195535,1.3790213961432605,0.14964567229151732,1.7159569288891248,0.8978492202603047,0.9326188347413313,1.3326331575703605,1.7938244673322639,undefined,1493663163648
903d185fccf839df,0.9271625372164638,0.876524521979169,0.04234151622160462,1.1189417800279688,0.8215894214183178,0.5873771551793331,-0.4662180456497489,1.053472467714136,0.4408532451347356,-1.08513272240309,0.15541807824340656,-0.28149799520229346,-0.15157781862745098,0.8893874831641422,-0.2476000925768976,1.9328646428306477,0.5703513344598523,1.5013485380207168,0.1821108736459944,1.9321511034934797,0.9889371827746165,1.0758435506273494,1.9313481327442128,1.8779214731188496,undefined,1493663164212
903d185fccf839df,0.9534967208717436,0.7021811844490863,0.02383917092019003,1.0493682689810722,0.7049701819664866,0.5808133633590047,-0.4166409438683118,1.2199157300661039,0.567442919585984,-0.9138974220320522,0.2982206351348334,-0.19163744643226668,-0.147225935828877,0.9171625431073388,-0.2612842470760873,1.8217313191054985,0.48007706207443457,1.4008890483303587,0.10711205835437351,1.6605995210233875,0.8897607053900958,0.8494720097073266,1.6932696886871956,1.5175836144827926,undefined,1493663165148
903d185fccf839df,0.979830973537843,1.048520033340705,0.43216643973606034,1.2954213932053242,0.6461668513753994,0.4425497189581524,-0.34630152008212833,0.46311387470051535,0.5720429480433514,-1.0975324427960451,0.3566173507233378,-0.21720600717978253,-0.43880208333333337,0.8542059788636781,-0.22128422962347033,1.7974841450885142,0.4745504058396322,1.437062820688862,0.09759639580677507,1.6940603383336712,0.912420743990153,0.9112098420759638,1.7463048062949216,1.6126621500633143,undefined,1493663165722
903d185fccf839df,0.8814240293645246,0.649349366970284,0.16547769814775756,0.9299723198414128,0.4785305635430903,0.5983921224622779,-0.5499799926281551,0.8002299529327409,0.9133835602667006,-0.7796546770457896,-0.027729541236779,-0.17942687225557002,-0.17333723262032086,0.8903133081349625,-0.1339156588546843,1.7025155286687639,0.4798538158086767,1.415119177584821,0.05476891881017087,1.6299412162206046,0.8676241306091539,1.0905103947319572,1.890331336547118,1.5553659164904765,undefined,1493663166645
903d185fccf839df,0.7705428964964449,0.6980717287263285,0.21205251915637974,1.0063940498111565,0.15368768035835423,0.41510893747899513,-0.3434665835395004,0.007233466913507477,1.0770045049669152,-0.7901726437744336,0.014162251033219561,-0.18573819703185954,-0.11676275623885918,0.7486607407189111,-0.13181041337755825,1.4378157613943126,0.44333024426444845,1.4087039068853728,0.025802121450405786,1.5375197471635609,0.8462741595374493,1.0977696525285208,1.818192711507749,1.5375255869943711,undefined,1493663167214
903d185fccf839df,0.990919079923569,0.8137140340921499,0.34539693760120915,1.0280585026822124,0.31827941036549057,0.44430595213900737,-0.38667692496489275,0.06972999005475011,1.2526093587814737,-1.0746808105850016,-0.16645643031013949,-0.21637610035164004,-0.16898534982174687,0.8338375186870434,-0.1549683786663613,1.5509698713856872,0.5718065695989419,1.5201130497381892,0.03193832548845977,1.7260737073588626,0.92381477652334,1.1144533585881418,1.8602421012069592,1.89499578883717,undefined,1493663168155
903d185fccf839df,0.5557106282405448,0.6070840532816054,0.2975459996681761,0.6908397036696599,0.1696202307984339,0.44544028850542694,-0.37282310740442626,0.025929390969934164,0.9857381457212361,-1.016704187470211,0.133434516455251,-0.31787734030878834,-0.16028158422459893,0.9995615871475195,-0.043389278768079506,1.4640836651480793,0.417560457494385,1.6719390412772743,0.10763681949432868,1.943807725753957,1.058935913643868,1.011748931262604,1.573513104580111,1.8678391071064406,undefined,1493663168726
903d185fccf839df,0.7941051915769322,0.8771114200653211,0.32306655919774857,1.03597788179545,0.4975385343428764,0.5488165862820821,-0.2830020851724966,1.11286810583454,1.5124736897602409,-1.0992095512898248,0.442804917011584,-0.3341986089706974,-0.08194769385026737,0.819024215547723,-0.03707345398989586,1.2418170176977814,0.5574254270542315,1.4618879662492577,0.0932583743049985,1.8031737238565044,0.9299159477539481,1.1442139969628222,1.3519191293104544,1.687587736346085,undefined,1493663169649
903d185fccf839df,1.0338855611790767,0.6575678107679221,0.3249805280980935,0.8769891421894553,0.6291337456099175,0.6222202319785465,-0.34577555431546536,1.741795047457559,-0.1381143559316939,-0.5661648663207655,0.4090820372567195,-0.21721488124655344,0.3967594139928699,0.8236533404018243,0.026084499302588954,1.213528497266118,0.548058297138594,1.4515082724755621,0.09038968243279892,1.8311218996355902,0.926876536768538,1.209202722183523,1.452257908897597,1.8178184191238729,undefined,1493663170220
903d185fccf839df,1.710260809827378,1.0080158815583597,0.28031967598981633,1.4328552174054405,1.1598139928791709,0.6128171075032793,-0.32648067333961295,2.194662718271334,-0.28729581232935386,-0.6502483258682414,1.4464217433974726,-0.12556354019218002,0.07036820409982177,1.156953697098497,0.2008214935954852,1.4438776679574448,0.686747872807192,1.5224119099540823,0.25302355195452253,2.0038154641713977,1.051500226348281,0.7200340558830293,1.5237166383758143,1.625666679001102,undefined,1493663171153
903d185fccf839df,1.261191880108099,1.3021109801770216,-0.19946489901848385,1.4588403991266277,1.2973852009253337,0.7172951364388711,-0.4823177187316959,2.615817007078824,-0.6125264387059742,-0.4524159457401378,1.4320581906397858,-0.11093768024835207,-0.2212079434046346,0.9782675092124573,0.33029532729401423,1.4115479141699887,0.6422394272956259,1.5478133441262785,0.3598788498224592,2.0452218833975824,1.1107901337874504,0.3052204312047429,1.3426158645393589,1.1643392540935527,undefined,1493663171720
903d185fccf839df,1.5356227891980958,1.7793545243856177,0.32880859296725823,1.8897246831194712,1.692736531925369,0.8742043416009215,-0.2963062793453773,4.7755767283303925,-2.858679188564404,-0.2590601189577001,2.568896779730227,-0.11608240606252826,-0.31694936497326204,1.192135149595863,0.45345339511222993,1.7287834606872523,1.028281105829498,1.7026031530849164,0.49457445797294836,2.2634794520880313,1.274106250987897,0.307758658453875,1.5852619196406883,1.492997975546995,undefined,1493663172648
903d185fccf839df,1.3027725550978495,2.9463415097706296,0.3383787551401699,2.163664666021493,1.8137271943510007,0.7347131977414009,-0.27879966810469875,4.023439180522674,-0.951820461365213,0.43935665967105525,2.7489343831195416,-0.10193781565378339,-0.4213945521390374,1.2004675743332451,0.8724012795644316,1.6055262107769526,0.9697724059626452,1.7082774695734297,0.5443427741547134,2.236547574166119,1.3101375727563749,-0.05877448648832727,1.3698087492986335,1.444857281438905,undefined,1493663173264
903d185fccf839df,2.066466710544563,2.6176126431747755,0.30966833215567224,2.074843309893299,1.9258310030464034,0.7449711599486268,-0.2344269491823369,4.317407535349314,-0.6694622932490896,0.6310659916090283,2.5378212327512704,0.10741879884989258,-0.4083389037433155,1.5032154479773587,0.8976644608814255,1.8237519640481163,1.0400103641406377,1.7590993415048501,0.5982602011866269,2.2358084486231498,1.3627001858051577,-0.09549967084542721,1.5807877698424944,1.4885457601194167,undefined,1493663174167
903d185fccf839df,1.2223837838013358,2.0030073555818357,0.2873378902179743,2.10010465152479,1.792466662667553,0.73347635795876,-0.3337442010673506,3.738363996128446,-0.22131824466158292,1.0369255820610088,2.059322950534341,0.0457531560464438,-0.40398702094474154,1.1662117395943068,0.905032878949237,1.7247420012136871,0.9906142765571623,1.7817902770565561,0.5753036631771009,2.2189471515460433,1.3642035880324281,-0.24202142147639177,1.5922655129221484,1.8584456510502172,undefined,1493663174713
903d185fccf839df,1.456620307243076,2.0030073555818357,0.40345592145020664,2.0812654733093408,1.9159978785581167,0.7526040674711403,-0.24486464759155957,4.29995699859364,-0.6956502872878453,1.162091745227958,2.4693492342263625,-0.1223326465929233,-0.44315396613190733,1.2930512110834305,1.0081909969390146,1.633814731208616,1.0404891075494465,1.7920179806249272,0.6777159821622577,2.2489125263037435,1.4076468296834923,-0.3281348889127604,1.6114340413192068,1.7132018532940934,undefined,1493663175705
903d185fccf839df,1.2182257439066886,2.006529679394503,0.13868124406360485,2.064293695758229,1.9237841542710337,0.6767966465720426,-0.3949318976210246,3.3337836521718476,0.3585997498769225,1.5551651165216664,1.0339932426892722,0.024779934492483377,-0.3909313725490196,1.4143354219290436,1.0092435313307722,1.7409072172840736,1.0617817309985014,1.8420419055175894,0.7090337075239238,2.2966939032101483,1.4514664368250434,-0.3922174572666547,1.6908846792136192,1.6827730862487218,undefined,1493663176355
903d185fccf839df,1.1350646699704656,1.7940300162506218,-0.06612051234077312,2.004117784136675,1.7359056179958852,0.6890135050877635,-0.43592531388363553,3.096074814043011,1.0135898129259868,1.012318523199368,1.2458215486297217,-0.1753884886284646,-0.29518995098039214,1.240278566109498,1.0787173388503757,1.7227216389182847,0.9442648112265749,1.8823447587926052,0.744843385823206,2.3769967944220456,1.4976502628526913,-0.5813554329621796,1.4804062292085403,1.5479354919395076,undefined,1493663177223
903d185fccf839df,1.215453717310257,2.147413278943636,0.06722396963829365,2.183209860109914,1.8108677764918477,0.706930012892398,-0.3538806247819992,3.4433473912147514,1.2718347936051648,1.1422474046367437,1.6236943631656557,-0.09652363529809635,-0.33000501336898397,1.2328720699491322,0.9987172155983364,1.5590523380972727,0.9668739883699546,1.8326628163023289,0.7189271995594059,2.280232962645239,1.4586432343277196,-0.6718675994398595,1.3797334839415678,1.4162090075539817,undefined,1493663177813
903d185fccf839df,0.9576548297772104,2.0622959873040654,0.06275786219048286,2.1900494895783673,1.703310241658347,0.6443200642240402,-0.3525525725597806,2.906251678022041,1.4135225255799635,1.294839378469371,1.7324720827538216,0.0146115841689364,-0.4649133801247772,1.4208161967247852,0.8134539055730043,1.5267225277803735,0.9678625773534455,1.7595109852634039,0.6281435794438344,2.1937552944458987,1.3801203888795726,-0.5174922299292187,1.5375160422058194,1.265767692807901,undefined,1493663178695
903d185fccf839df,1.2459457338277258,1.6625384228474922,0.0991245419817846,1.7996850667770632,1.6873674093402238,0.6809077558532857,-0.3676108423121211,3.15539282227914,1.1821617230208132,1.3916851259882301,1.6980402560528505,-0.16316115302258696,-0.45620961452762926,1.4319260963746283,0.7092432826404044,1.5792583918173504,0.9959376304185165,1.7085117901560296,0.5859738005409003,2.218993348295925,1.331529013266441,-0.22285211991959125,1.581389537720668,1.3027062420423827,undefined,1493663179276
903d185fccf839df,1.1558548694437019,1.2017308309384176,0.0723280878976319,1.588048477383446,1.3845359119042704,0.7051062174590448,-0.45851534047761017,2.6148736531298726,0.47752312988579015,0.5411782533257318,1.246809899672383,-0.07781480552454566,-0.8783422459893049,1.592095525828772,0.8976646081261013,1.565113990277911,1.0873800300877003,1.6529655404584682,0.6015487021090363,2.0795758255676886,1.2941155554997679,-0.0615687068972823,1.5548112229414262,1.2432088224425033,undefined,1493663180274
903d185fccf839df,1.3415809274478905,1.5709638493166171,0.5182979945936215,1.6068876555988956,1.3994398856726884,0.5662602660017859,-0.311761646077661,2.5640797320806743,0.7848229236200787,0.33225555689572306,0.2598861100824968,0.009378466819072276,-0.9088054255793226,1.568949694345873,0.9734540342813425,1.7328248071019312,1.0216711749984069,1.682439060011924,0.6214336388040649,2.3058405852978647,1.3618859766757396,-0.16301803273312002,1.2222553256969442,1.1946046031688258,undefined,1493663180762
903d185fccf839df,1.1724871670439299,2.149174207026031,1.3757853829987121,1.6298767208369476,1.1897248087413488,0.3378806908600644,-0.10182423107891109,1.9380814941813358,0.9620554158203187,-0.11907965998599031,-0.5764004055658893,-0.13301919626305034,-0.847879066399287,1.650422861612135,0.9881910176616413,1.453980610023319,0.997049947210117,1.520296703709594,0.6013178067628682,2.2324823887416154,1.2766177914026722,-0.2777517321405735,0.9591772521595602,1.1149597796581217,undefined,1493663181703
903d185fccf839df,1.2681220846208168,2.3158867003164434,1.6641665239460666,1.5320860518917445,1.2445064326926296,0.310344424582816,0.000796059586871359,2.335644660646913,0.9019114508150202,-0.13085372752295005,-1.168529077174132,-0.11248050482214518,-0.4692652629233512,1.66431049518993,0.7766116385403359,1.4640837216775224,1.050053414617783,1.4486204461169052,0.5187764287711855,2.147190400626242,1.2068797763602475,-0.22043138919351712,1.0356527598149514,1.1143655704472648,undefined,1493663182270
903d185fccf839df,1.2473317471259415,2.6181997750848662,2.127362817854653,1.6298767208369476,1.001342265031159,0.04865207169391766,0.20641796111126287,1.6769440123761514,0.6002209918358744,-0.03800937566874938,-2.2549464984868743,-0.1436952516192267,-0.10805899064171122,1.5883920187330982,0.6124009894288105,1.3974038518072078,1.0534308526219183,1.4429841263935161,0.4349756243078679,2.1587854307069487,1.1576089091923099,0.1180509688313922,1.1109988970478015,1.19575793453126,undefined,1493663183244
903d185fccf839df,1.3429670787677452,2.7420600566004483,2.415744054103364,1.652558398311529,1.0350896369723634,-0.0020065510364252297,0.30374708210152107,1.7815280699620948,0.671893080943568,0.18296875225174408,-2.3466723121806163,-0.20227150734465205,-0.08629957664884134,1.577282119083255,0.5534536154373833,1.229693204571517,0.9595694121410695,1.3971336130618655,0.3817928642470066,2.061128489390429,1.105578471656574,-0.012957815661906237,0.9618661106363899,0.8673093223558919,undefined,1493663183744
903d185fccf839df,1.2653501960460243,2.343476639052087,3.0556694381064093,1.7859407980807103,1.0337010707589223,-0.2906947893170849,0.5240275260383507,0.7264365153750754,0.04344562636113116,1.0946147808910984,-1.7870327930733905,-0.12402093213425504,-0.1994485294117647,1.545803862862974,0.5587167585791336,1.29031136573175,1.015886353447006,1.318693771289522,0.3391752902064809,2.0056786874325874,1.0467697157641456,0.15655537759589497,1.0294328230007277,1.0083529236940063,undefined,1493663184702
903d185fccf839df,1.1212043989666691,2.262468335487397,2.8795785176590716,1.7221161333155655,0.991889715444367,-0.39160208756641934,0.5777360542578658,0.2631755170082283,0.3206286556495922,0.9484557924150213,-2.3825061893637343,-0.140788780081669,-0.678155637254902,1.4291487768714621,0.5692430890360369,1.1327040562680348,1.0003844398813622,1.2849518471106176,0.32985553765385023,1.971016786854157,1.0225305112477507,0.1561864972525076,0.8903726316496677,1.00722932295873,undefined,1493663185253
903d185fccf839df,1.087940355852769,1.978939740658859,2.936999554230779,1.9574940006303692,1.0630564492144787,-0.5393969716291312,0.8378291314581973,0.41479857495837263,0.40384184945020224,1.7961554944780098,-2.0054586470023725,-0.06675403128480473,-0.8870460115864528,1.2745344526515345,0.3071375239743546,0.9589318133811486,0.743772618589332,1.2155237876183993,0.18292950576700415,1.8512322784485746,0.9225582984906446,0.07835279043166961,0.7281885506051085,0.9982192658751861,undefined,1493663186209
903d185fccf839df,1.1724871670439299,1.7359155314366044,2.797912879646609,2.0732460505515133,1.0985935344769073,-0.6203520086292238,0.9228034263485507,0.29732172205887286,0.5638344747494247,1.7297402970129259,-1.7085397155706077,0.025598888048179228,-0.9436204879679144,1.1865801479678433,0.2892427607251722,0.8902311289798869,0.6626772349245124,1.1373119331693886,0.1744423735374203,1.8557132241214094,0.8712771322012857,0.25838425434886975,0.8685494722941909,0.9789993459397335,undefined,1493663186768
903d185fccf839df,1.010323473131048,1.0943072031941732,2.7156094849595687,1.8589698453533832,1.0036668363828478,-0.7942227276027808,1.0394905458237724,-0.1000809247172773,0.0051617094903132444,2.08415885056675,-1.8990804764016147,0.04470538582831634,-0.8304715352049912,1.0736284654658088,0.17134782132423917,0.8417364982987028,0.6253952285742792,1.1158939171541489,0.09320240241161915,1.6614464363710588,0.808444660841674,0.2708204624236709,0.7399770333552059,0.7708219229476946,undefined,1493663187706
903d185fccf839df,0.8647918007751161,0.7098121456007256,2.3647029032771005,1.852925186585029,0.9458200815358808,-0.9335415152342094,1.240255197781108,-0.1833713418621124,-0.10185531391082488,2.0859296078473752,-1.128315092790126,0.01927429620671358,-0.8000083556149733,0.9653058560147775,0.16292678051786466,0.9306432364200423,0.6619115784687435,1.045066275331957,0.06633464900608535,1.6041026247482737,0.7544954027521373,0.3982053945001469,0.8173037244198412,0.8342664155756127,undefined,1493663188280
903d185fccf839df,0.7400504659140594,0.28892192429981345,2.4163822872847223,2.253639635959601,1.0034302722387576,-1.0879211657023313,1.417646133520355,-0.4682317264347094,0.029738544588779052,1.9968524189696841,0.02199885599072433,0.006031188353274825,-0.7956564728163993,0.8264308671173832,0.05555820102277014,0.821530388049182,0.5214155296536964,0.9317065855607439,-0.0031086985717949343,1.4558463925972311,0.6562858351879449,0.21635776337164156,0.5059037348100701,0.7272394641090172,undefined,1493663189224
903d185fccf839df,0.7220322930372546,0.11986137101691516,2.1841458436148335,2.3485985685821755,1.0280748030871216,-1.1486421036659273,1.5426565939210988,-0.29105044725610146,0.2553457255198238,1.8293550358731245,0.4889948971027758,0.027789206765327104,-0.7738970588235294,0.7884715770858692,0.028189818402052917,0.8114273894538647,0.4891272636740046,0.8881549324615963,-0.051904457858190166,1.4213692716948299,0.6093604062053529,0.25477593810490584,0.5631453034333881,0.7130981187721034,undefined,1493663189776
903d185fccf839df,0.7220322930372546,0.10225103798524289,2.255603054505907,2.3901778792282777,1.041117063979131,-1.2046649651290866,1.522454423417636,-0.6834901931505036,0.3995163725391017,1.8440873974076613,0.6504897263686383,0.03856455866505795,-0.8565828319964349,0.7625482188874112,0.03345297626827079,0.7750564588400589,0.44372004060784587,0.8479724062625407,-0.06457568252101321,1.4505647245840845,0.5886693036391751,0.2877892786109216,0.5537510510620531,0.6927428228441168,undefined,1493663191844
903d185fccf839df,0.7220322930372546,0.10225103798524289,2.255603054505907,2.3901778792282777,1.041117063979131,-1.2046649651290866,1.522454423417636,-0.6834901931505036,0.3995163725391017,1.8440873974076613,0.6504897263686383,0.03856455866505795,-0.8565828319964349,0.7625482188874112,0.03345297626827079,0.7750564588400589,0.44372004060784587,0.8479724062625407,-0.06457568252101321,1.4505647245840845,0.5886693036391751,0.2877892786109216,0.5537510510620531,0.6927428228441168,undefined,1493663191874
903d185fccf839df,0.9618128696718576,0.08405357304347988,2.5841790036479657,2.359532970499032,1.4503952455056122,-1.195657797134787,1.4654770465139186,-0.39482390302565135,1.6356522386579517,-0.22285672588060232,0.42371826737184415,0.10233786577000395,-0.9349167223707665,0.7255149610391103,0.028189818402052917,0.8316333866444994,0.48000322240768745,0.8257311081118334,-0.07509188884658166,1.503673963103337,0.5922930414124441,0.13883500364638116,0.35639646101453004,0.4954313299204147,undefined,1493663192225
903d185fccf839df,1.1974354064118133,0.18854224270908684,2.4961333845887035,2.584287713446967,1.8580482823668352,-1.0859762492805811,1.3459523632745827,-0.05341736812906863,3.014891588279486,-1.9586655091089118,0.05649394880956504,0.07816714246604134,-0.9653799019607844,0.7032949286254824,0.043979233102836204,0.8376953780017962,0.5356218438600727,0.7800072550268233,-0.051918450586852405,1.7608895931456452,0.6258562838653227,0.21682279723906397,0.44094729768905666,0.8172581686953381,undefined,1493663192781
903d185fccf839df,2.1981381118966983,0.5307723373497638,2.7156094849595687,2.8514664921285595,3.0996656226078327,-0.9162818545987322,1.082053959860849,0.9898359239591559,5.541913116215772,-6.5550019597187505,-0.5815979788753294,0.05846105195355337,-0.9349167223707665,0.6773715704270243,0.12818987675806284,1.2236314393319923,0.7679349239230991,0.7537508696877098,0.013753615610411728,2.2769838968352727,0.7429248157359021,0.28405387666090803,0.23767543387244558,1.1429585925495764,undefined,1493663193703
903d185fccf839df,2.2577368217416143,0.5712763722201395,2.8183289714785382,2.647603263812839,3.2728356234129126,-0.8819488675870188,0.9989862765407856,0.9708788780114862,5.339029894670708,-6.918807894749794,-0.6587063647697199,0.07238130224963216,-0.691211285650624,0.6125632008324285,0.1302951811330592,1.2236314393319923,0.7141506759750326,0.7016814054101731,0.014859111594351347,2.311568808727059,0.7250148381767905,0.2974413958560251,0.12520223993565188,1.1385334057081387,undefined,1493663194296
903d185fccf839df,3.582766362965707,0.6939627406514481,2.741129980954904,2.7782044125742464,4.145001026090899,-0.7253913832355172,0.7120823305887031,1.3235365638768208,6.069065509496147,-8.365002028425137,-0.9483816721021464,0.10530798733278234,-0.6346368092691622,0.5616423094063329,0.03871606051215075,1.520660762540849,0.721942431902922,0.6075675306329811,-0.08917646826659306,2.678190397071197,0.7121269969465517,0.19107543451844833,0.32845866444657273,1.2513962617051901,undefined,1493663195230
903d185fccf839df,5.538433059051078,0.6716559368988968,2.567590722548252,2.7777323128379265,4.738228602034378,-0.6967021443187447,0.5898699850669556,1.6446885791161632,6.00806904649727,-9.712059885048582,-0.8770735589164095,0.08054012019592507,-0.5911179812834225,0.6199698265005397,0.07555826864694894,1.7590926260615334,0.8170305508048356,0.5910512134116097,-0.06322529613164245,2.7808672313608853,0.7391097248111896,0.2521922845643714,0.295817697607257,1.0945085097391056,undefined,1493663195767
903d185fccf839df,6.116400880450326,0.685157398767658,2.3876714830948007,2.856233375842203,4.9735961951084615,-0.6621804885339867,0.5309412893448356,1.9454882701949447,6.723154967982282,-10.678734447241887,-1.146266522704969,0.04608156737106457,-0.7869527072192514,0.5755298393779311,0.10397930345516436,1.8641640149588288,0.7885751820257966,0.46918637421900994,0.009751442792429314,2.894261388150675,0.7466519822888524,0.19794567082107722,0.22902816858892242,1.6483171581130907,undefined,1493663196968
903d185fccf839df,6.127488986836052,0.685157398767658,2.3481145586431493,2.6759204468792297,4.954814512272207,-0.6636572266176113,0.5081934673863406,1.7993909411543985,6.740534630805294,-10.537322179986889,-1.1305375778084017,0.0033265435346603142,-0.7869527072192514,0.5921949219666375,0.10818982385835163,1.874267070083589,0.7885751820257966,0.4675841392859197,0.002572715261152798,2.8839752268618017,0.7441994700013459,0.18412259560400565,0.24242672821336098,1.660205403769827,undefined,1493663197690
903d185fccf839df,6.478150765349554,0.6106063770942725,2.2613453424123664,2.8561441319477106,4.895342612984039,-0.6491973096981155,0.5266047387194351,1.9399614565186516,6.645714340010262,-10.890093939916708,-1.1059207056017533,-0.03981477726507188,-0.7869527072192514,0.5181280695498973,0.11976879177828556,1.850020009125491,0.737266281694496,0.4332849167278049,-0.0003799391734873063,2.8354239306717153,0.7184874301518153,0.16884975331028637,0.08086583500937569,1.6934572361793772,undefined,1493663198225
903d185fccf839df,7.866937746421405,0.7186173705725465,2.2447568071757034,2.9702405200521516,5.28219798345687,-0.5982428743386755,0.4634446888969582,2.287914913100277,7.932479556120406,-10.0343119220382,-0.8904634258872727,-0.0005522456928280944,-0.4779690285204991,0.5773815152211208,0.11134772152297587,1.8641640149588288,0.7699556180775706,0.4470527372901282,0.020407585103083235,3.0759784494992215,0.7821407294152342,0.23182200014641915,0.5945688349987326,2.208783970194705,undefined,1493663198757
903d185fccf839df,8.458766114867725,0.9023532988084794,1.6660806199148863,2.9633589156171416,6.015599027797775,-0.4445526831114497,0.21121735920755028,2.782040665245896,8.268786173242278,-9.447903746180252,-1.0284421981892613,0.048508676346673815,-0.4779690285204991,0.5338673012662344,0.1313477596982195,2.2682857677137003,0.9044524970692603,0.38644646615353373,0.022534615848158402,3.459184157113639,0.8418661134438591,0.2651158087891722,0.38581885911940417,2.145434267545126,undefined,1493663199695
903d185fccf839df,8.724880944168428,0.8882650557655355,1.6277999712232396,2.842651351020951,6.533545587922912,-0.38995531605505646,0.11908473683402358,3.180072111369466,7.9896242758680724,-9.640444776263523,-0.896054168307257,0.05096019660855835,-0.47361714572192515,0.5560872559752149,0.21450576589041553,2.852241245947767,0.8599393826435301,0.4081874624125903,0.07211401802614613,3.5476636184418764,0.8935576954241486,0.3459185873806907,0.26594613973867504,2.004668679333857,undefined,1493663200313
903d185fccf839df,8.565489690916895,0.9182027037577569,0.55147452502593,2.7954629017061414,7.17567136535869,-0.2773366024620144,-0.09086319577456316,3.5249499525126717,7.092244360274399,-7.7376936182802165,-0.6547405160624429,0.036062182233562154,-0.4779690285204991,0.5496064293763749,0.20082153776888795,4.5556137283221005,0.9675632236750222,0.405951932978881,0.0691683615156877,3.884843381085137,0.9612120305565395,0.2565269922115041,0.1841379324327137,1.966682171304164,undefined,1493663201221
903d185fccf839df,8.487872118086978,1.1483128168452794,0.4442886451550818,2.8509022294260737,7.593589515289029,-0.1840202915007316,-0.17632663443650526,3.987339531327321,6.648532218979633,-6.083299388095752,-0.39161773544210043,0.039637525865540854,-0.4866727941176471,0.5449773045222738,0.11976889484955865,4.7495922510468365,0.9675632236750222,0.3576189086933452,0.05972966505609131,4.017701165003196,0.9583845312916426,0.2678934628741244,0.3988728785546499,2.0591288653107407,undefined,1493663202164
903d185fccf839df,7.6645796668602655,0.9962758154198708,0.44811671002424647,2.689349769184493,8.12128692125595,-0.10415300722976419,-0.24875675253278332,4.546259795885642,5.9050942348351745,-4.849701351489538,-0.13766387534758528,0.09432190456116542,-0.47361714572192515,0.5459030776899958,0.11976889484955865,5.141590190675443,1.062555677448689,0.3917788065016309,0.07352037816236578,4.1915342156059365,1.0009833688495429,0.4660409551755414,0.5985664873255445,2.152861764947646,undefined,1493663202695
903d185fccf839df,6.2453001171843905,1.0179952534383927,0.4034560167515627,2.4527917067838785,8.536386789097461,-0.1976393514158296,-0.34026874361307863,4.182196767444152,4.54573108461836,-3.0545001749583824,0.17391516346823097,0.17067254868878823,-0.5084322081105169,0.6745940437114655,0.18608471635773252,5.501258546104923,1.5837193149497277,0.5849842486015988,0.125646618006901,4.286234654871739,1.1290671970371118,0.7854804561244597,0.1141090915266483,2.162484233515528,undefined,1493663203239
903d185fccf839df,7.309759710430478,1.6003145992226864,1.3400567140189377,2.6485221788938955,6.673739619756341,-0.3598778552052428,0.17374525496717588,3.2941298986445378,3.6465135680517746,-4.581459009210305,0.3811110651925082,0.08446112931939409,-0.8087121212121212,0.8375408703734226,0.6397694162229305,5.537628967953742,1.7457698098892653,0.7596088382374777,0.48447806505905394,4.609217055417633,1.4043643816515947,0.7072390456462668,0.28602958151391733,0.5215171301283854,undefined,1493663204148
903d185fccf839df,7.053346836195646,1.3238304181955436,1.2934818612431969,2.0352979575713235,5.160898731437218,-0.2718232906361436,0.21193792564711303,2.4042023338737653,1.4505340812015155,-2.5246205058367748,0.35168719010678906,-0.03434010753315145,-0.8087121212121212,0.8717966792108119,1.4450336446403986,5.5335877345979485,1.774268017987338,0.82272929103148,0.8221511575004642,4.685269977678779,1.5901042055539671,0.932772473389984,0.014099670170102266,-1.3314252414337018,undefined,1493663204721
903d185fccf839df,4.558520829082708,1.4799764076958326,0.8960006809219371,1.786536270671914,3.7152234331722713,-0.12655097103405125,0.09816462639742775,1.3057131336951615,-1.8915425965682984,0.2484970532519025,0.4399729711004911,0.0017974700763278856,-0.7129706996434938,0.9190141930489794,1.6629286129484064,5.487113748859382,1.7830971243605964,0.9050702216631539,1.096230232054475,4.789271078236459,1.7505966504833665,1.2839397191920552,-0.48848021377485573,-2.976492973743247,undefined,1493663205716
903d185fccf839df,3.778194652079045,1.5533533993729756,1.121218815062312,1.8017155446154138,2.950090992088123,-0.14034472432947112,0.1504241316972767,0.5769386834863663,-2.485938578529224,1.3049684301768922,0.6021166361369229,0.039538319900941477,-0.6563962232620321,1.0282626274708309,1.5229284340685065,4.7213037306151735,1.7519050027818381,0.841367142458018,1.023414422221274,4.116158830437052,1.5544692487370249,1.413562533801116,0.07414720872874393,-2.2318667890115442,undefined,1493663206218
903d185fccf839df,1.8904424695846063,1.2504534265184009,0.7479821091133325,1.8923963758094384,1.2872537834469064,0.22034495371076404,0.009266659436235555,-0.31369873953763844,2.040607365582495,0.17522064760178574,1.22421938540766,0.025136308932450273,-0.8130640040106952,1.0347434281681218,1.2755597051424472,2.167255216466096,1.5309328800428015,0.7414839563284583,0.9811396927028067,2.881696246502462,1.2555083702505325,1.3797634554204568,0.6780087457323117,-1.689452247139381,undefined,1493663207152
903d185fccf839df,2.1025027802548943,1.5856391073576825,0.3307225301004845,2.170549625162389,1.5756647212196933,0.2693102179291815,-0.22471507406576757,-0.766941457250514,1.9767799379753432,0.08877656903920568,0.9664250554244401,-0.0038719163700136764,-0.847879066399287,0.9403083486886888,1.028191005665323,1.3024351223285715,1.33938972443348,0.630904425343521,0.9253121371457143,2.0782361632774644,1.0210739788794678,1.4165424442451997,0.8563958864513082,-1.1092300534252935,undefined,1493663207722
903d185fccf839df,1.209909664117394,1.7464814506668813,0.16164953797723686,2.5682534875425516,2.0960284301534764,0.22206625935492944,-0.17078564022752757,-0.8492192735598674,2.694982596823983,0.49882269030104603,0.9765552730360988,0.010686684924039283,-0.843527183600713,0.1839021209963462,0.5924010690493076,0.6821084308334836,0.5360925078006776,0.23793260648866127,0.7660157419405939,0.9808967465291945,0.5649746747127412,1.2710783689492946,0.810331509292834,-0.31244941678583527,undefined,1493663208645
903d185fccf839df,1.2404019566781406,1.813988526186749,0.19163604611902677,2.483357358999656,2.2756886987099865,0.30335204800230914,-0.11228297358309956,-0.0662271912329196,2.819860527182147,0.7027976448131746,1.0092163680012582,0.06562173165320033,-0.8130640040106952,0.10798372224416185,0.48503240120740754,0.4719652573327916,0.18437336783154665,0.18519818562203474,0.6650517602438606,0.7171521671094812,0.46253665804604654,1.3700126310960892,0.2724452099369597,-0.25044544966002785,undefined,1493663209417
903d185fccf839df,0.6832243347521304,1.5292856675380293,0.16420170829182135,1.7399341835631745,2.5053168855879258,0.36045801021527435,-0.0686334507810076,0.6042697693975033,1.9325644086123022,0.8243633870685356,0.7713049962226086,0.10790501776362998,-0.852230949197861,0.027436211588650804,0.3850322986779948,0.17695649427238827,0.07089252980311578,0.030117060252100595,0.6263873829172651,0.37807839690139783,0.32475327338849347,1.6711961837741571,-0.3201285328740213,-0.3003457945515276,undefined,1493663210156
903d185fccf839df,0.8093515448897638,1.2528017203348252,0.11507474873573335,1.5786939436487375,2.5660024951781257,0.38993685906732356,-0.0819165982892206,0.7383349927734718,1.7970479226586582,0.6299460828756069,0.791392704282177,0.06015742483624821,-0.852230949197861,-0.1512497690849961,0.26397950578584034,0.17695649427238827,-0.18627220141879391,-0.28988658488492186,0.3674284124225135,0.3784941581324773,0.06271021534484295,0.47042101136464876,-0.5566047799727006,-0.2800846930638322,undefined,1493663210720
903d185fccf839df,1.010323473131048,1.1060477369805395,0.22736477863303842,1.2367640356250218,2.3945296345264295,0.3708743662180489,-0.04393431006957938,0.6140624159962629,1.735119435836544,0.6098025015668304,0.6771978632724287,-0.023271899834100655,-0.8130640040106952,-0.22531646609244174,0.26292688304727735,0.16281231885072123,-0.2500490572782954,-0.3728988105251258,0.307283828781401,0.2703662732797538,-0.008918785103972161,0.3051215147825536,-0.54713221686822,-0.32733189028563686,undefined,1493663211648
903d185fccf839df,1.2306998635906303,1.1207229950216049,0.31413437606924566,1.4519723551346455,2.4545878269379755,0.368021051414858,-0.04030254520115369,0.6512575620262983,1.5377173096759944,0.6106244118116866,0.6428048571881217,0.005276730492811563,-0.8130640040106952,-0.2734598567045276,0.25450590113877314,0.15675044055231055,-0.28012009817251693,-0.3733294504626485,0.20063843325171957,0.22529502217955383,-0.06411481900038404,0.1728370683821738,-0.5378086859528107,-0.2948900730382716,undefined,1493663212213
903d185fccf839df,1.4593923338395074,1.042649883359491,0.25288533816261094,1.725820177687011,2.219857934424981,0.23241041782625074,-0.09512348319921092,-0.6220400731919333,1.8146169368545357,0.5186855922867876,0.8415506748900714,0.006875461616050456,-0.7564895276292335,-0.4095573577386865,0.327137606323001,0.051678938596129154,-0.22135186063170922,-0.3967296773949051,0.16880294615460945,0.2860418911748674,-0.08537698863934602,0.22270906252486666,-0.5564278024475385,-0.2289297101710867,undefined,1493663213148
903d185fccf839df,1.250103773722373,1.036192835292125,0.25607539222024817,1.887160958911526,2.123007819256883,0.20990996984305466,-0.11029220096932017,-0.864370979809252,1.9219132851534433,0.6603846504618276,0.8694575828921859,-0.01219284961521372,-0.7956564728163993,-0.39937325715811467,0.35661121969637666,0.12037953820322633,-0.22444667764386442,-0.36301308579906355,0.1712588290417529,0.281807319081008,-0.06829281941205916,0.21952646465416092,-0.5958421051299705,-0.26373732599151306,undefined,1493663213732
903d185fccf839df,1.2459460098710036,1.130115234991547,0.2567134030317756,2.076900440139064,2.156580335030611,0.19129003526209087,-0.11751101750027844,-0.9671806245315804,1.8711065569071679,0.8270797587067575,0.8837461834350456,-0.06319115047069936,-0.9262129567736186,-0.5151024275233844,0.27661115534220765,0.09411163444945946,-0.3678506028325523,-0.43747583915239796,0.09312544118056366,0.20068830968157828,-0.13407687595473478,-0.050196290485278225,-0.8010202095020698,-0.5734008165736245,undefined,1493663214640
903d185fccf839df,1.3498970072371852,1.0907853470293836,0.17313385965320557,2.0805052922178895,2.2360990552520783,0.20775309828042604,-0.12503489149490024,-0.84114498829716,2.224201950100498,0.9835020615530886,0.9098178841588288,-0.07019417756423937,-0.9436204879679144,-0.5336191212014076,0.11450575170780836,0.13250315347644004,-0.43040662821470416,-0.47252868273342574,0.03595449949500015,0.26312900653168725,-0.16438181056514373,-0.018069143019937714,-0.8029164977255633,-0.6177118585707527,undefined,1493663215227
903d185fccf839df,1.4580063205412916,1.0549775490559483,0.11188469467809614,1.6065636515221922,2.3915262164726245,0.31019303224113437,-0.06245339666673228,0.11110325080075194,1.8811048624819398,0.902971999297491,0.8662089120711229,-0.06900393940283528,-0.7956564728163993,-0.5188057921605381,0.1534531316973947,0.18301831604135588,-0.4508687368194732,-0.4715787394654506,0.015509816877703007,0.28336255989018877,-0.1763478079242465,-0.08427027503957961,-0.7977613360548632,-0.6374676221710092,undefined,1493663216223
903d185fccf839df,1.8045099211385076,1.14009460687158,0.15271751368432734,1.851465748919637,2.5074871637600262,0.25034556323769946,-0.09113143322669208,-0.23128389235206756,1.8587687395602333,0.9804680225677267,0.9492390400912951,-0.03791595972987223,-0.6172292780748664,-0.5058441389628583,0.1208214881391865,0.24363661852519675,-0.4450408206770902,-0.47906427974477445,0.02718049868011526,0.36611380732054727,-0.1649753440756854,-0.08789541488029064,-0.7911280864943624,-0.6167881703161301,undefined,1493663216723
903d185fccf839df,1.6728383817647332,1.1424426668640655,0.0972104460129649,1.2542508509421029,2.5435488035052316,0.35735547030543474,-0.09505773686868761,0.46134381415208325,1.592181003620811,0.7663601583416462,0.8917512349731737,-0.10804007287972403,-0.5388953877005348,-0.5067700027860021,0.14292680124049134,0.35881126040030314,-0.4797902799204635,-0.4484381632848703,0.07046276980897878,0.4382247273051203,-0.1279444724231662,0.011706956359140605,-0.8266502143291418,-0.6714069091689493,undefined,1493663217644
903d185fccf839df,1.9278648286364317,1.0080158815583597,0.07743211085561409,1.0591119060070695,2.5112620088536546,0.3525246217319041,-0.08626366361103761,0.41193440155072036,1.611713382336866,0.5118942703290813,0.8711003601171544,-0.08901719406684326,-0.44315396613190733,-0.5012149493548842,0.11661096773599923,0.40932647949466205,-0.5218456278650757,-0.4887473497471769,0.07072864880580441,0.5116137174674585,-0.12946603101342327,-0.049703292992651596,-0.7963650704807372,-0.6767481029907428,undefined,1493663218218
903d185fccf839df,1.6520484583347748,1.1582919549013737,-0.029753832549471393,1.5956108984653337,2.450967256587134,0.2532035314119067,-0.13512546205021483,-0.3494526760462255,1.6678180900131283,0.46778387068089444,0.842826861926785,-0.05398042884385707,-0.6825075200534759,-0.48269832043073374,0.2513478856784082,0.42145009476787576,-0.5222415435738024,-0.4714204151980425,0.13720534785016042,0.5506025810951345,-0.08904074795844266,0.011009715204355097,-0.7344682768728081,-0.5202207796724649,undefined,1493663219141
903d185fccf839df,1.908460918504689,0.9880573716222326,-0.004233273019898876,1.5956108984653337,2.343718296461777,0.2780332195951219,-0.18201227304699522,-0.2767084573653783,1.6829242158992275,0.6758897223094992,0.7938899343514791,-0.0827921515635174,-0.8783422459893049,-0.4678849266359915,0.2629269124962125,0.449738615199539,-0.31336903131023813,-0.40833796039830494,0.2233570778073838,0.60523626583473,-0.004484726897642609,-0.09651312336831075,-0.6137761959437593,-0.5761437876838212,undefined,1493663219722
903d185fccf839df,2.4961308329914456,1.2563235764996148,0.10167658522789437,1.780910268702367,1.9137864397472133,0.3446261713389257,-0.21278100133098013,0.16044858817246269,1.051105291904983,0.5471621752003156,0.7575324019805073,-0.013640158348074473,-0.9349167223707665,-0.2688306670965536,0.58819048974825,0.47802702257231616,0.011766888708216064,-0.1999334490432636,0.418071329462264,0.6423157218097348,0.2028488424938634,-0.16208885764242512,-0.4403808195669178,-0.7264678738424998,undefined,1493663220643
903d185fccf839df,2.7206652633456754,1.353181168101613,0.09976248925907467,1.8913936035296453,1.814570607342466,0.3602181002008405,-0.305831427110158,0.04312580302667795,1.235623093408713,0.3745901730682166,0.7542524234548122,-0.02098630002303836,-0.9088054255793226,-0.18180227803910443,0.9681910089353328,0.4396355600747786,0.246947065307552,-0.12356448226741391,0.6788284749387229,0.6446870825161614,0.3572638953216848,-0.06006671418668977,-0.47018019020833374,-0.3336669839165452,undefined,1493663221228
903d185fccf839df,3.0588533362401527,1.4154045240785413,0.13230110418121174,1.684960815816784,1.9537875193288072,0.32845659820732126,-0.39678852778963397,0.2674940131687629,-0.8544440731812551,0.46384089277827145,0.19965687353635966,0.0024700872914461057,-0.9305648395721926,0.29685386825225335,1.8345077979234838,0.9407463763389673,0.9947735379509827,0.0475706540014459,1.3109693466816925,2.328060549117644,0.960763054149246,0.6748225420363367,0.9361192544177417,8.295833688044675,undefined,1493663222144
903d185fccf839df,2.544641436450636,2.044685303536485,1.074006015009281,1.6642233047657915,1.571725304381295,0.006674532105681085,0.005264106326866625,0.5966678709786449,0.025357710937109708,-1.554550116098372,-2.1806683709086374,0.004340896678419284,-0.8739903631907309,0.3838822314081535,1.8597709497915427,1.4438776114280016,1.8878613707296592,0.20844642237665054,1.235032959154674,3.1968562384848176,1.167800934421784,0.28433443345673837,1.8388616438588579,7.544267394139316,undefined,1493663222720
903d185fccf839df,3.176664535599311,2.0282488835890864,2.020176937983805,1.6682631025534422,2.374081698157597,-0.45190841105967083,0.3204989506898258,0.2560324388901891,-0.4385996410887503,-1.7368410744402647,-2.5179939707817103,0.032677993325576485,-0.9218610739750446,0.454245602630769,2.2997714951575507,4.226254764384674,2.415549736648047,0.33806911373160925,1.436268239892371,4.0468504343356315,1.4495084202320814,-0.10909915247158575,1.366351187664413,8.662619776228325,undefined,1493663223714
903d185fccf839df,3.2224026983971528,1.953698095739639,2.0316611961255364,1.7418944693925995,2.699552001081653,-0.5141433554780088,0.31616240112831484,0.2007517996433583,1.2589220435046884,-1.1058895295551816,-2.298912227499677,0.09705850337801304,-0.8783422459893049,0.4755398100735766,2.359771521336476,4.589964013993288,2.472294716499127,0.3874850725320688,1.4839445089491328,4.252542870249529,1.5203457939141518,-0.03926303099486543,1.932634983252891,8.760952876746778,undefined,1493663224313
903d185fccf839df,4.336758287303271,1.9478280626703945,2.079512006990095,1.8271422458145776,3.508007808710597,-0.5225402653622649,0.2989003549399878,1.0275794181618803,1.6829352581891222,-2.7191204410722736,-2.3150357324662623,0.1185267890998848,-0.38657948975044565,0.6338574082752362,2.377666343483529,6.267068903525791,2.5896781485017093,0.47873645671724985,1.4981480356221424,4.51425484523132,1.6147271033792157,0.2217909863368479,1.7489050723083361,8.285093320175843,undefined,1493663225230
903d185fccf839df,5.050555964014217,1.7376764595189993,2.0176248947376956,1.9296889620499136,3.9700927476816714,-0.54069901520168,0.301424968687482,1.3634752276728508,3.287658121238581,-3.762583542974069,-2.224173098367516,0.17515675470571407,0.22703598484848486,0.5931206951343596,2.3608242324218445,7.127847481660307,2.6108325006067803,0.506804064075441,1.5188515991224545,4.907531141229438,1.7169960746569317,0.09151749024114636,1.5073228889005683,7.536294637603644,undefined,1493663225770
903d185fccf839df,6.94246660046822,1.7441337414103038,2.0176248947376956,1.906516433117058,4.891207761466233,-0.5065616887329856,0.30924338135746826,2.4607929742315604,5.189153591987117,-6.090250572986267,-2.33466239739816,0.19249517405501002,0.2879623440285205,0.5449773045222738,2.3797715300627846,8.33010911950573,2.669278967493322,0.458483702742827,1.6227542402129165,5.403268690076965,1.8294785123737092,0.16103815744546024,1.407316595900947,7.4822505067288425,undefined,1493663226696
903d185fccf839df,8.159386828388206,1.6484501798045483,1.981258278480631,1.8831592356360867,5.320018480086355,-0.5861797469695064,0.32065936945401446,2.3925131429297344,6.354241384771423,-7.2749416807177925,-1.9960529906237925,0.17205811927686168,0.44027824197860965,0.598675644959281,2.341876875883034,8.511964111751418,2.6616560194585226,0.49524010755850334,1.6036669406307058,5.640789714761144,1.8643172441424531,0.25761823143245466,1.2594378922181155,7.721463871549114,undefined,1493663227301
903d185fccf839df,8.630631349781561,1.5768341162098003,1.9410635338201645,1.9662476106439355,6.034534979471278,-0.6294849653927991,0.3355414424724961,2.897896262151175,7.4967965000522945,-9.223964086565939,-1.771262079145064,0.26922494552137366,-0.5911179812834225,0.5292381246090349,2.3092451587024883,8.922147177510269,2.635373062618703,0.48725426588582865,1.6647770868153702,5.925568565033241,1.9343631298898705,0.3276688660576861,1.059812622207575,7.130457824585873,undefined,1493663228217
903d185fccf839df,8.783093640715128,1.6543200959618234,2.2262544936414077,1.9994499988212502,6.340246465180207,-0.6017297514218682,0.36800113893377795,3.4810821723053027,7.801517368412258,-9.797032222428777,-1.748919367411959,0.22142959052919095,-0.6520443404634582,0.5144247955681654,2.287139992845859,9.190888093346349,2.882827996865416,0.5048661829668857,1.7553508052288607,6.174053282444382,2.022622937897666,0.5782520132828536,1.192697583306671,6.300345445274778,undefined,1493663228805
903d185fccf839df,9.215529789758444,1.660190129031068,1.9499956851815488,2.262330387567938,6.335823615593702,-0.5245201267459111,0.3226290947320577,3.729008304969991,7.5994116716930575,-9.53497775043207,-1.767588168733658,0.10003685656794423,-0.4605614973262032,0.4209156705672981,2.197665999906336,9.093898888513424,2.901790053920294,0.4633790684158444,1.7121245041949607,6.318305918739004,1.9995842542654156,0.5930965838808141,1.4533608150938315,6.665807026523084,undefined,1493663229706
903d185fccf839df,9.190582240498754,1.4447558585444575,1.6788407090769606,2.09300762375263,6.7639348959723815,-0.4243721578005883,0.270232838931928,4.272245309495327,7.138366868275329,-8.998834169052374,-1.510772318032445,0.08560610959113178,-0.5911179812834225,0.5181281731560937,2.2534557118246203,8.992868450324705,2.9276835977549607,0.4714915699586667,1.7195551175295039,6.44629779847322,2.023765755115238,0.6488365643143137,1.4768924666251788,6.559732116531294,undefined,1493663230262
903d185fccf839df,8.888431065444442,1.5193067633058737,1.6041935076624867,2.072885407006474,6.919475207576361,-0.3744845137773201,0.19712159728659814,4.296704657255678,6.113930248395238,-8.27333851963612,-1.1340866739978352,0.05345313414527632,-0.6999150512477719,0.5375706788541627,2.192402886213521,8.821116852380436,2.9826060214781025,0.47673524659270733,1.7127332284234236,6.515267433567406,2.0243551772125494,0.8766518700587439,1.3928042693262719,6.59120379518422,undefined,1493663231203
903d185fccf839df,8.300760874914408,1.326765259362212,1.4332064831046567,1.9765047346905478,7.1333354182396365,-0.2891784542632515,0.059035744833321184,4.078123409569739,4.648746693594244,-5.429063125089928,-0.629495446016759,0.06573931727492764,-0.8217677696078431,0.5597906076615942,2.1439820046481404,8.707962827183227,2.9555036356960755,0.4880078861834383,1.6662394197992312,6.535793561360768,2.0066916132674892,0.8739131654046813,1.328911423046947,6.914459905738539,undefined,1493663231857
903d185fccf839df,7.52043400780255,1.373726809947831,1.0184988838036813,2.063764209321745,7.433297200158283,-0.06485175629021368,-0.025394177630227284,5.194918920386453,2.368245640042873,-2.9497631739347856,0.2512980237438184,0.14646960674148246,-0.9001016599821747,0.6394123321986086,2.217666244224126,8.60693238899451,2.9565401143792602,0.529646990524554,1.729525574380639,6.611338335339515,2.0635476807792563,0.8056403699813086,1.1838498948318208,6.708783927815888,undefined,1493663232810
903d185fccf839df,7.15313993168882,1.4682363415573436,0.33327463688083164,2.311440168257639,7.645953987166814,0.046788679406330046,-0.16846351308113253,5.434005386774764,1.0676618527562733,-0.3445471945365741,0.4171984709121952,0.05309795730821781,-0.8174158868092692,0.6903332236247043,2.221876735178378,8.586726278744989,3.047716143439225,0.5771757316772909,1.7338635978826948,6.5934299425450575,2.080656428019099,1.0448610008163575,1.0150830858348376,6.535441602134797,undefined,1493663233283
903d185fccf839df,7.117104138021766,1.7141955088582357,0.2024822934492307,2.586465840219135,7.513412487411096,0.3206652910905218,-0.24899343489668294,6.462745120371659,-0.19720180175120924,0.8129824641288012,1.3984370561698864,0.07765143635783282,-0.6825075200534759,0.7773615997313789,2.0934554653205417,8.5927881570434,2.983188576792739,0.6492762955440582,1.632213932696137,6.596001484401978,2.067044721426811,0.8240413576801635,0.5660559624025129,7.228666800536784,undefined,1493663234219
903d185fccf839df,6.69436897789285,1.7094993888732646,0.19737827049124848,2.4575009277737174,6.687573863314143,0.40211878282692665,-0.2425188532205946,6.037523786245049,0.35915301473194494,-1.4071093687850538,1.5600098920589045,0.14761881705429442,-0.45620961452762926,0.8569833501699424,2.106087055979039,8.564499580082293,2.802083105027608,0.7323265181874631,1.675769079063816,6.637284716495387,2.1258835190818526,0.7813564356644426,0.07193219413426588,6.875904873793778,undefined,1493663234782
903d185fccf839df,6.805250593836665,2.0135738593719594,0.3281705503886121,2.406243992402111,5.712263482532258,0.5364576516476482,-0.1842134246347873,6.033831476933616,0.9772817174774211,-1.5079099650414738,2.0786274370513,0.22043626716978906,-0.1820409982174688,0.9477150779629963,2.1208240688082727,8.67967425022212,2.656599554334661,0.8066942784376032,1.6999920375236544,6.494371746502758,2.155447553654966,0.7521012633742025,-0.5070320047932098,6.545561295570554,undefined,1493663235697
903d185fccf839df,6.2480724198240996,2.0135738593719594,0.3402928193418709,2.103186355979251,5.363208067482697,0.5267703463471781,-0.19007263238222005,5.620156284413479,0.4948993248104949,-1.125247733940488,2.068557648223303,0.04102789988012331,-0.16898534982174687,0.9291983713341985,2.0039817079725,8.475592841960953,2.4276535774173813,0.7873344704739994,1.589050603186458,6.212487801968681,2.065301463644013,0.5942592169859493,-0.6783983821909559,6.019184470796664,undefined,1493663236292
903d185fccf839df,6.239756754099722,2.234878630575692,0.6210179576193708,2.5495828042165254,4.798708449103154,0.5692719753543611,-0.14642574102034442,5.594000653569223,0.23098662190056107,-0.5732272140964606,2.6777630712452996,-0.0078817425250662,-0.517135973707665,0.9958584685750821,1.5671390897200512,6.7520144189254285,2.054751072494726,0.8604799685858568,1.3540697090041462,5.403314886221041,1.8766681239640435,0.6798720435345961,-0.841294272579179,2.6744803007937636,undefined,1493663237213
903d185fccf839df,5.111540687157349,2.3939598119785575,0.6210179576193708,2.794635080570665,4.317142406496928,0.5595171233420094,-0.1429649168142366,5.069928276665257,0.9009527575267546,0.25709404451883633,2.745399995716239,0.045119857339421976,-0.6085255124777184,1.1319559825600156,1.367138707967615,5.879111801546875,1.9512291679129516,0.9087053330890998,1.2846823353382757,4.95563587555503,1.7918641526149763,0.7677843287919676,-0.7984223254440642,1.468003817122848,undefined,1493663237775
903d185fccf839df,4.5197125947543055,2.8107409282926197,0.7454300023329853,2.828910147312783,3.6637537910981046,0.6540516266212649,-0.09895248368749576,5.192851117362515,1.1470894292954725,1.0415874014727384,2.683907730785013,-0.013834096439711634,-0.44315396613190733,1.143065985816055,1.4081914070566652,4.8768905647246,1.8487550426335742,0.8897508336094356,1.3336949957863158,4.469183593821486,1.71409140322146,1.049201825523993,-1.4794432374512598,1.777005819638519,undefined,1493663238681
903d185fccf839df,4.044309481379747,3.0349808913989285,0.7875387158937968,2.8869237729841246,3.0896679025525717,0.6604756704870663,-0.07735651666086439,4.698799788383746,1.9815147752854991,1.5958899381102443,2.83400820567503,0.1183760565811185,-0.4605614973262032,1.1495468124148949,1.362928217013363,4.398006305799499,1.8203429740393937,0.9314026046019659,1.364935755500408,4.218373709222844,1.6886691465017662,1.0087311481355985,-1.4616920935946403,2.09796523772272,undefined,1493663238510
903d185fccf839df,3.9264982130097694,3.317335456231224,0.6127236900010394,2.8769701040020146,2.5602527877468955,0.7226151121312262,-0.11502322882495375,4.5099675705014155,3.2767902070632116,1.7954611815300168,2.951200050736636,0.16835233665168856,-0.6041736296791445,1.3050869616056429,1.5229283457217009,4.307078809676655,1.728059229171163,1.0287336171923327,1.4369259418826092,4.182741707254413,1.7569206943971505,0.9819495112996217,-1.6942237899008503,1.7475303214826785,undefined,1493663239405
