UUID,iqrAccX,iqrAccY,iqrAccZ,iqrAccXYZ,meanAccX,meanAccY,meanAccZ,meanAccXYZ, covarianceAccXY, covarianceAccXZ, covarianceAccYZ,pressureDerivative, pressureIQR, iqrGyroX, iqrGyroY, iqrGyroZ, iqrGyroMagnitude, meanGyroX, meanGyroY, meanGyroZ, meanGyroMagnitude, covarianceGyroXY, covarianceGyroXZ, covarianceGyroYZ, class, timestamp 
903d185fccf839df,-1.3278833159531407,-0.8810001360758052,-0.7219960713306481,-0.8247143356245779,-1.9773807381150734,-1.7057402204730063,1.923832656681705,-0.8107282384610194,-0.2787965945100115,-0.6830153216618116,0.060468222735253235,-1.4501921248477267,2.0156598150623886,-0.8650676531209834,-1.297075001330008,-1.033387553755177,-1.1297122557946284,-0.9546833869181268,-1.2726161860422291,-1.1487871779329633,-1.1607120461374871,-0.46682475522569405,-0.6579451236113409,-0.5273407601671375,undefined,1491593581178
903d185fccf839df,-1.0007838540860068,-0.726908523700987,0.13485308389308415,0.140974924621952,-1.6667839366675454,-1.8180077295007562,1.922205209182107,-0.8951903674958119,-0.3860555798067521,-0.38162236960695906,0.05451594914274184,-0.7440102087894299,0.6274092023172906,-0.7484125865556335,-1.1918117151665593,-0.7060490793044,-1.0084334519886016,-0.7788361143547462,-1.188689776623326,-0.7967365170312937,-0.9839907057575494,-0.454397194029403,-0.568003144517914,-0.49737345213737594,undefined,1491593582570
903d185fccf839df,-0.764468366768234,-0.6250612900009608,0.4410985275632072,0.37959629801904426,-1.450939274149959,-1.8683699900474449,1.9715642764114918,-0.57444104181348,-0.44012839646657725,-0.3276192765031876,-0.03571808618619997,-0.5022520103904095,-0.5737104500891266,-0.7095275751594956,-1.1497064080634136,-0.7424199957858449,-0.9461955166699207,-0.7119777528994938,-1.1145388434433023,-0.7253220291191883,-0.9158022058111541,-0.4409600888866877,-0.5697988796712404,-0.4878856723868962,undefined,1491593584069
903d185fccf839df,-0.6598242247313058,-0.571055895559797,0.599325462958963,0.5015752904760611,-1.3230606912512717,-1.9326360715874507,1.9650639150299825,-0.6554242003048715,-0.37733571255203974,-0.5165310527068816,-0.018032795916322432,-0.15680624542945437,-0.9871393159536542,-0.7298959446807084,-1.1097063537996277,-0.5565241093610235,-0.9424196619071765,-0.6881950990462364,-1.0971492878645688,-0.5448312787468668,-0.8700854475692845,-0.4561893065415766,-0.5313162604414405,-0.4881027425569348,undefined,1491593585576
903d185fccf839df,-0.7221948749091293,-0.7571398253322308,0.528506135810942,0.48668867539922894,-1.2563990897012058,-2.0052035198927842,1.9776317651619,-0.6337841227228918,-0.3139669458197135,-0.648187229240374,0.010197589716538395,-0.14342885153063592,-0.1820409982174688,-0.7021209365406099,-1.0823378901943388,-0.5565241093610235,-0.9485603204961567,-0.6982309938909558,-1.0859477435089098,-0.5711895688230954,-0.8734224589020453,-0.45673192598207984,-0.5449371889867609,-0.487836106276821,undefined,1491593587135
903d185fccf839df,-0.6251738750232071,-0.7565527664921209,0.3198764733729927,0.35748632258669505,-1.2391088337217335,-1.9855074728690554,1.986315389816642,-0.546290234644555,-0.27560067238688246,-0.6105636085173021,-0.0031762736675816135,-0.2541393766224254,0.5142602495543672,-0.6891592380152192,-1.0254957322311025,-0.5545035350802093,-0.9451136367418596,-0.7099950700439325,-1.0553660824838629,-0.5595791396130567,-0.8691810826305564,-0.4594096458117743,-0.5568773453946595,-0.479745444427028,undefined,1491593588586
903d185fccf839df,-0.6889305557519512,-0.7160487023937528,0.4379083464370953,0.3963650965591994,-1.299825302685643,-1.9653642119100612,1.9790702681802748,-0.5859929048400585,-0.27010313328635316,-0.5928994020597524,-0.040145491554704094,-0.2504532958091144,0.0660163213012478,-0.6576808846641288,-0.9770746040308899,-0.5181325479369606,-0.9854457745661124,-0.6749675589075509,-1.0181290543681296,-0.4707147115618034,-0.8266575985660807,-0.4620102841325374,-0.5718206363926023,-0.483910668433466,undefined,1491593590086
903d185fccf839df,-0.551715066701543,-0.6596952479601035,0.5374385413092756,0.49248162405461554,-1.1941500532209142,-1.9180759970748882,1.983367374372525,-0.4943619494421909,-0.25105587102519167,-0.3622135949127064,-0.04090883761627952,-0.07847377414040434,-0.5301916221033868,-0.6410158668292951,-0.9897062204572051,-0.47367922127337314,-0.9655961048128051,-0.64090898841957,-1.0130423731666385,-0.40473237443994287,-0.7969182615507994,-0.4446813055007948,-0.530838618437832,-0.4690144341922235,undefined,1491593591591
903d185fccf839df,-0.6099277287428339,-0.6520640383705293,0.70013091704335,0.7637859654957874,-1.2468333905591966,-1.9331811131702965,1.97525178726593,-0.5818025335647928,-0.2383222493017478,-0.15875648409813414,-0.002666711785732792,-0.02616822157622551,-0.8565828319964349,-0.6336092023088603,-1.009706251270215,-0.3463808651985276,-0.9423753379081987,-0.650611057978308,-0.9971736071260007,-0.43354286343326687,-0.8028653318560635,-0.44676070773319204,-0.5427385543662335,-0.46384256738363544,undefined,1491593593059
903d185fccf839df,-0.48102828497631045,-0.694916177075379,0.906846928252141,0.9947934966683589,-1.1927614831944797,-1.9171326550833823,1.940012386284856,-0.7823659427004667,-0.20761861095938178,-0.09626424726678388,0.09284647723500397,0.0947089136604705,-0.8304715352049912,-0.5910208651278924,-1.0181272994388233,-0.27970078334280146,-0.9081485325706802,-0.6105678551283051,-1.0022672854564556,-0.36435764796232767,-0.7726470780856004,-0.4066685282890152,-0.4943025619105386,-0.4446429617796024,undefined,1491593594566
903d185fccf839df,-0.5794353844239727,-0.6796537432822345,1.2807217720811226,1.392741004748335,-1.198531761623683,-1.9381027951035128,1.8760265790259052,-1.2276233259142426,-0.24028343433106122,-0.06705924524236109,0.15241327246557312,0.02189716331727447,-0.8957497771836007,-0.6012050045607878,-1.0128641121236703,-0.1443200736152566,-0.8725858487884387,-0.5905620861953773,-0.9655410257214299,-0.24511208411076746,-0.7350508488093699,-0.410489574558228,-0.49887663124845744,-0.46540121361346976,undefined,1491593596074
903d185fccf839df,-0.4560800973665415,-0.7277890461981691,1.2622190773414026,1.2665938020163954,-1.0651262668056445,-1.9721655894272843,1.904812433927018,-1.0379322883131212,-0.3048059794314983,-0.16415018995642985,0.13139922890297004,-0.01926577425124839,-0.8304715352049912,-0.5919466641971636,-1.0254957175066348,-0.20897952466072559,-0.8945106399084751,-0.5714999255824742,-0.963106135420122,-0.16856641166265424,-0.714661058253378,-0.40058210580451686,-0.47690890246949913,-0.4710864746351597,undefined,1491593597564
903d185fccf839df,-0.535082907122954,-0.7905996802251499,1.101440606973436,1.0497122245940056,-1.1000667778568565,-2.0192138925976484,1.8970834399760805,-1.1500739247155995,-0.2764340801716288,-0.3949163740016127,0.15024739109269328,-0.06497746655074904,-0.7477857620320856,-0.5937983270895786,-1.0539168185749543,-0.24737111434951004,-0.9000382796265542,-0.5613672154882537,-0.96507923709666,-0.14540714755746958,-0.7063693204668934,-0.4125084181658389,-0.44680531264892304,-0.49024375763146283,undefined,1491593599086
903d185fccf839df,-0.5711192873819733,-0.8105582047752732,0.9042948850060313,0.8774044873478378,-1.0616085553316843,-2.026255182863319,1.9656188103697034,-0.6958305613627019,-0.2615225521651184,-0.5391958539642849,0.12571767834060493,0.025899279859351216,-0.6302849264705882,-0.6039824924240231,-1.0265483549696655,-0.2877833065838301,-0.8913338258801143,-0.5834121923517419,-0.9543741163085344,-0.08473727190675917,-0.7022994045632645,-0.4240247419805672,-0.4803073282995745,-0.5074769902484021,undefined,1491593600603
903d185fccf839df,-0.6154717129248773,-0.7389423019344831,1.072091855506224,1.0385769082487666,-1.1275501646327615,-1.9926885167751873,1.9503080872717047,-0.7625534837136608,-0.2922640093338243,-0.5862751564452265,0.0987773698669341,0.11689844386150461,-0.23861547459893048,-0.609537519953592,-1.0181272994388233,-0.26757716806958776,-0.8853076375838967,-0.6439424675717843,-0.9360704581375878,-0.12555855122912088,-0.7318293816415168,-0.4540851115625908,-0.5119812924771894,-0.5148756592563231,undefined,1491593602085
903d185fccf839df,-0.544785034715874,-0.7436384511474465,1.1582236962678532,1.1643765551684577,-1.0981330737994437,-1.9725429268510564,1.9884770903588027,-0.4879537320104478,-0.32065795218858817,-0.5193006040890954,0.04598878798031528,0.0936306903211256,-0.6346368092691622,-0.594724203863497,-1.0160220465994634,-0.211000141338622,-0.9159508048712477,-0.6558230690911451,-0.943354138388667,-0.18401105150291788,-0.7456927636672667,-0.4604126727602279,-0.5351889219174081,-0.5075706641651604,undefined,1491593603563
903d185fccf839df,-0.43390383283697487,-0.46891513974671384,1.2003321556917153,1.1248094978539365,-1.1006633555729857,-1.8993419260162077,1.9664997971488294,-0.5370646562002981,-0.3515430514578512,-0.5905890591413488,-0.02112533236263789,-0.14254797955297158,-0.5519510360962567,-0.6002791666391931,-0.9960220305109212,-0.1685674030882094,-0.9091522645765492,-0.6462919881424403,-0.9517013339847571,-0.20144209440018915,-0.7417969695122306,-0.466275534788559,-0.573800726516353,-0.517531014482159,undefined,1491593605075
903d185fccf839df,-0.32025060436164426,-0.5505103413975561,1.2060743800639369,1.2257344970858834,-1.0234383366467152,-1.872739684974737,1.9694215009405267,-0.49452510297756314,-0.2967202384064834,-0.4639247413620982,-0.05903657657665205,-0.0918607860804609,0.057312555704099835,-0.5567650174381794,-0.9623377568519162,-0.16654675814559144,-0.8893832162506936,-0.6550631153238747,-0.9321452475171567,-0.13484381815463298,-0.725372104448636,-0.45436324657269417,-0.5945462537488583,-0.5153685154364526,undefined,1491593606557
903d185fccf839df,-0.3147065511687812,-0.6027547054583519,1.1416349068942409,1.107601259913576,-0.9688007126300191,-1.8534582428081332,1.9347790606318516,-0.6862572616430038,-0.32130378301345347,-0.5467097760586305,0.02518665244167017,-0.1607823523111277,-0.7738970588235294,-0.5613941617184425,-0.8981271440096994,-0.18675284013039073,-0.9037672821330985,-0.6559877239325375,-0.8902063626452229,-0.1150106194505298,-0.7073302368726639,-0.45760668225481116,-0.5920575510621998,-0.5056716634060777,undefined,1491593608075
903d185fccf839df,-0.31054851127413396,-0.6150820496468934,0.6459003792689413,0.6817734992592023,-0.9926738161384822,-1.872166692213219,1.8704829449443654,-1.1450115211971355,-0.29464313095221384,-0.3458915383234455,0.0872417485833216,0.03815099928758199,-0.9871393159536542,-0.5438032930112395,-0.9528640564958096,0.20524500057169076,-0.8339164439801794,-0.6593948480074676,-0.924287829177916,0.20908046203247285,-0.650004317497308,-0.45221988284356834,-0.6150804202887555,-0.5056119364518363,undefined,1491593609553
903d185fccf839df,-0.4408339683388731,-0.7900126652270285,0.5540268224089892,0.6321999427076923,-1.0989867815002943,-1.9715227195254723,1.8994844573472804,-1.088954712697665,-0.26809323723791534,-0.6793283419482117,0.15409090504869624,0.09157675563079942,-0.3604681929590018,-0.5234349234900266,-0.9570745916234645,0.1587710289654854,-0.8019861499808891,-0.6468556201629481,-0.9342372938102395,0.2896297298927515,-0.6311937590487532,-0.46442831710910365,-0.609693275000146,-0.5308440353522759,undefined,1491593611069
903d185fccf839df,-0.6556662020893634,-0.8105581901612771,0.5655107628795337,0.6107872974455587,-1.318483554924855,-1.9992499828341814,1.91664657570147,-1.0603998348843229,-0.2675838688606256,-0.6892453778730961,0.09796299421600178,0.10183082207180319,-0.1298184046345811,-0.544729169785158,-0.9760220070601452,0.10017351274787015,-0.8123885009792153,-0.6577356182422807,-0.9368261138835465,0.23096165311934458,-0.650253623514568,-0.47023134360940755,-0.5991644231615888,-0.5163210365068646,undefined,1491593612566
903d185fccf839df,-0.6418060691072058,-0.8264076243385469,0.7052355118094683,0.6881101155577574,-1.2643190773770756,-2.0183241218718444,1.9537110508586184,-0.8339479178336912,-0.2867539855495539,-0.45362841746577776,0.12636379392008942,0.07050654586584738,-0.7651932932263815,-0.7160084147091101,-1.056022078776548,-0.07561945987579863,-0.7960292950867811,-0.7348835384912262,-1.0181710375823412,0.035016436713534015,-0.7550024184965363,-0.46250373950786333,-0.5620466731133189,-0.48001640032838966,undefined,1491593614036
903d185fccf839df,-0.5392409470176013,-0.8616285826818147,0.6280360765461728,0.646987151359674,-1.1466507072500354,-2.0259733450597555,1.9249962022223068,-1.0033923366893782,-0.2625191225645186,-0.16723850735619966,0.21640874613392527,-0.06520034711687626,-0.6346368092691622,-0.7317476075731235,-1.0697063068980754,-0.30596872949365067,-0.9095084626094228,-0.738581979243213,-1.0492578672981028,-0.35812127319479325,-0.8535357764799893,-0.4609913168841475,-0.543069134635759,-0.5142328035025153,undefined,1491593615542
903d185fccf839df,-0.5946816169678703,-0.8187764585909612,0.7294796685105619,0.8352749121990114,-1.1817249280936355,-2.005944217153599,1.9919063593130055,-0.5284536435940876,-0.26867935299339973,-0.19423752264424374,0.18291388244708454,-0.03165090682636659,-0.678155637254902,-0.7076759122670806,-0.9339166557835966,-0.35042208442195966,-0.9274800147293489,-0.6853915832980614,-0.9676470647431751,-0.3060283318192122,-0.7989022562399895,-0.4630108889987353,-0.4580059377839993,-0.4885245114216915,undefined,1491593617068
903d185fccf839df,-0.6750704227697937,-0.6908070574745332,0.918331122859635,0.9737549497838056,-1.251112238774743,-1.992660565408056,1.9410985050667984,-0.8678269830579057,-0.2657263341018956,-0.31888888862995785,0.19031764038478655,0.031106963500090495,-0.678155637254902,-0.6613842104489588,-0.91707455944638,-0.35042208442195966,-0.9209903043733402,-0.7242378588075106,-0.9479720330901431,-0.31887063373286256,-0.8095575508518483,-0.4559372229152372,-0.5021000849763434,-0.48142153550478844,undefined,1491593618558
903d185fccf839df,-0.6210158696339696,-0.6620432641106005,0.9776662554001622,0.9846016221641863,-1.3163338435496343,-1.9847854075585671,1.966591860696732,-0.7130210833864401,-0.2658669038137128,-0.3581354664870957,0.20883493329749547,0.007762606359311463,-0.6868594028520499,-0.6984175719034562,-0.9718114424835551,-0.4494319059327811,-0.9356932440959549,-0.7238642149589077,-0.953121685338725,-0.40719611974754555,-0.8288062383382854,-0.4411215935642678,-0.5094940095425795,-0.5048441651382922,undefined,1491593620071
903d185fccf839df,-0.6556661848366585,-0.6767186536776314,1.0682640447740088,1.0537478117609156,-1.2787910526480806,-1.9824421926598614,1.9623236839138647,-0.7276998973554553,-0.2727076174704148,-0.28651116754418066,0.21187698375727368,-0.03536514539807331,-0.6650999888591801,-0.6965659219618157,-0.9876009381689101,-0.42518459059218905,-0.981135913055543,-0.7513238605988624,-0.9673741889966435,-0.4067649643385719,-0.8465848112539035,-0.42601823762398744,-0.583295126581989,-0.5136276406743656,undefined,1491593621551
903d185fccf839df,-0.7083347591796766,-0.7753372756599977,1.0044629636212643,1.0114921902813427,-1.3095658573189526,-1.986436837792094,1.9370512422500954,-0.9126138651092366,-0.3176013908508406,-0.5651657207506292,0.17391120913321403,-0.05519036994371991,-0.9523242535650625,-0.7150825832629025,-1.0065483167944218,-0.43730821999776354,-0.9457140860636181,-0.7727165444573624,-0.9757423747072764,-0.3869471650222766,-0.851357159938526,-0.43222286311286817,-0.6073606984751535,-0.5509423575573827,undefined,1491593623063
903d185fccf839df,-0.669526317818816,-0.6902200424764118,0.7690363388252635,0.7972439830702355,-1.266191072353586,-1.9627391573508368,1.9283623579884257,-0.9370187387260569,-0.3559882413227309,-0.34935444624684936,0.15821055468416245,0.028261470794647702,-0.9262129567736186,-0.7113792380519106,-1.025495710144401,-0.33021603070188194,-0.9463220843309679,-0.7072212399270282,-0.9725588255932276,-0.3375951480265814,-0.8115245566359605,-0.4367796356220659,-0.5947240697118965,-0.542639319005097,undefined,1491593624568
903d185fccf839df,-0.6903165345447572,-0.6913940578586584,0.7550001009716597,0.8116074978078515,-1.2150711590386492,-1.9258230446014757,1.9703971690245183,-0.6162611471055217,-0.33895875606917575,-0.38386351828815907,0.12605842042503432,0.027806904472419892,-0.7695451760249554,-0.7030467356098811,-1.0033904485787326,-0.4292258239479818,-0.9581463094247351,-0.6992733957060245,-0.9662337087686915,-0.3807415907535338,-0.8126928600549116,-0.43749683016478214,-0.5997858770929129,-0.5471040241986546,undefined,1491593626075
903d185fccf839df,-0.6653682606714639,-0.5857312705128316,0.9310915932271333,0.8870318629622196,-1.1114941900373165,-1.9019809523969478,2.0454465715015275,-0.07780027832082832,-0.33686822763510266,-0.30080286158180997,0.11807648566382034,-0.015854860265740137,-0.7434338792335116,-0.6863817177750474,-0.9707588197449921,-0.2736389757061946,-0.937462876963561,-0.6574569695786587,-0.9496092861991112,-0.3490977862230028,-0.7832370186629743,-0.42629199704763476,-0.5351541832317955,-0.5392045389631173,undefined,1491593627564
903d185fccf839df,-0.45053595791015416,-0.6262353346111997,0.9508700554529589,0.9394220794894296,-1.0474040101201838,-1.9180433869493512,2.0086319219120554,-0.337064630988803,-0.2936757096854044,-0.38174293826652517,0.14146123488936177,-0.06242740048279187,-0.6825075200534759,-0.7271184179651495,-0.947600891267358,-0.2635359629785165,-0.9777090676104756,-0.6632706124281711,-0.9332927232836364,-0.31880904359936324,-0.773276916606759,-0.4334324829011637,-0.5518186808345815,-0.539265653288787,undefined,1491593629207
903d185fccf839df,-0.6099277287428339,-0.6203651700159897,0.8538924121007873,0.9027165093055884,-1.1133970416448224,-1.9399056263202,2.0212181749068483,-0.28042627483233024,-0.29379700388705393,-0.2294624512758719,0.13310019172847917,0.041028533263943644,-0.5780623328877006,-0.7317476075731235,-0.9728640799465857,-0.2413092501834601,-1.0118437493010308,-0.6565070272906733,-0.9540732519238062,-0.3487282244746536,-0.7811474589874154,-0.4450358119039938,-0.5438864414585486,-0.5298691387545954,undefined,1491593630575
903d185fccf839df,-0.5059765933550134,-0.7377683011662327,0.9189692607396371,0.9371612406895663,-1.0640462675223203,-1.951966426221031,1.9879090570007423,-0.5031791100780386,-0.27473280014501567,-0.25196066392240185,0.11903401879035633,0.0025239113126117223,-0.5780623328877006,-0.7613742527040879,-0.9254956002527546,-0.27768018079726586,-1.0120772434207823,-0.6904326076777952,-0.9491125132324563,-0.33325278777042194,-0.7917450400062979,-0.45177674084301406,-0.5418372854998351,-0.5341449982097338,undefined,1491593632059
903d185fccf839df,-0.5697332740837575,-0.7324851661831402,0.7218235387722325,0.7864086182711038,-1.1268918754711141,-1.9403807901729115,2.0475004558630485,-0.1035927779183217,-0.2720594079813313,-0.39915812409345236,0.11545276892000986,0.03211485640251612,-0.5214878565062389,-0.6965659219618157,-0.9244429775141915,-0.18473230824665893,-0.9909930326139622,-0.6722823913087832,-0.9316624671262376,-0.2618193982411892,-0.7652535229433427,-0.4443062994426241,-0.522745768934201,-0.5538748894054297,undefined,1491593633568
903d185fccf839df,-0.6986327178502809,-0.6855238932634483,1.1722596799845075,1.0947265203145238,-1.128815302595771,-1.9378186281445413,2.067195061858706,0.029573364792437662,-0.2946096724422136,-0.5352670577028297,0.14668930369053207,-0.03608770350322977,-0.5214878565062389,-0.7095275881102702,-0.9486535434548562,-0.2635359629785165,-0.9850826162695304,-0.704998377139197,-0.9404644550378197,-0.317915933776941,-0.7962282937921685,-0.4337034057278666,-0.5663958766563196,-0.5530989975684064,undefined,1491593635054
903d185fccf839df,-0.6501221488965003,-0.6450198583930726,0.8577202228330024,0.885658285460444,-1.1750289404338823,-1.973495585892757,2.0143044011742477,-0.3509913392259035,-0.28839392519165147,-0.5213090454795353,0.16593178720722582,-0.05018395274841544,-0.5998217468805704,-0.6965659090110412,-0.9370745534482209,-0.255453496266931,-0.9861552352491875,-0.70805085552662,-0.938379405194707,-0.2086793603001303,-0.7784106440512447,-0.42827713749459423,-0.5634489559997256,-0.5647141898424424,undefined,1491593636552
903d185fccf839df,-0.7928816566343618,-0.6743706229131381,1.045933285165124,1.085647984176761,-1.1781352205433966,-1.9790997359365683,1.9647509689415694,-0.6986570684231258,-0.27109770165539177,-0.29605975556057856,0.13454812105893088,0.004034703634594539,-0.7434338792335116,-0.6706425896649069,-0.9570745842612307,-0.1887734992053694,-0.9875186919104512,-0.6879057624473593,-0.9126591285221487,-0.18374927760723553,-0.7567776295407228,-0.40724140465288006,-0.5245808316161221,-0.5630000291015254,undefined,1491593638059
903d185fccf839df,-0.7720914226557157,-0.7107655966386527,0.613999838692569,0.6319624885955221,-1.1451901375363815,-1.9488172957584498,1.9708021556153543,-0.6151953304852725,-0.2886753041508834,-0.22416161985228544,0.07237894223522741,0.1498625467332568,-0.7434338792335116,-0.6113891957967815,-0.9718114498457889,-0.06955760984210947,-0.9363664286594847,-0.6448797453455081,-0.9250294894731201,-0.07728442802635378,-0.7215231677167724,-0.41558965082200205,-0.4529402794951005,-0.5575852376422031,undefined,1491593639578
903d185fccf839df,-0.6972466700466554,-0.6825888475008337,0.7211856550291798,0.6517099300498587,-1.140520431511029,-1.95283290438749,1.9680724185725678,-0.625889303350736,-0.2929964533226767,-0.23597280178694927,0.04739509341472166,0.11691152745065912,-0.5432472704991087,-0.6086116949827717,-0.9865483080681133,-0.07561943161107709,-0.9034661925995986,-0.647938556715365,-0.941471994476659,-0.0905732889101018,-0.7304139983115602,-0.41180132633764327,-0.45685028648991444,-0.526323357073714,undefined,1491593641097
903d185fccf839df,-0.4103415722618973,-0.6456068441632017,0.6612123846086505,0.5725183002240096,-1.0632131362448565,-1.9465695797705131,1.9862180813271173,-0.4682016230055778,-0.31212658184860986,-0.4247778742237943,0.029774961280758995,-0.058958788638648445,-0.47361714572192515,-0.5956500417850918,-0.9749693401481794,-0.16654681467503454,-0.908137253348658,-0.6192439892065453,-0.9597406676573118,-0.11802871743700159,-0.7259673778778829,-0.4308894534008939,-0.43403970154796506,-0.5297883808392043,undefined,1491593642560
903d185fccf839df,-0.4228157264512489,-0.7101785524125389,0.7709507524652699,0.7159512727056585,-1.0012520921957964,-1.974122150641195,1.975054557767527,-0.5546158131810652,-0.3006836124178028,-0.7045580519444521,0.05719088484771889,0.035366703031954355,-0.5084322081105169,-0.5863917014214675,-1.02128518237898,-0.055413363758638604,-0.8728685200457287,-0.6205992401944004,-0.9594188144181554,-0.059329847394063114,-0.7196339320148105,-0.42124997107990725,-0.406272118666128,-0.48698673521475183,undefined,1491593644053
903d185fccf839df,-0.31609256446699696,-0.805862070176306,1.0019109203751544,0.902004281123394,-0.9523127419097791,-1.983967844992215,1.9823969795132443,-0.5186786055742136,-0.25074055146592134,-0.726085434022196,0.16391376630317908,-0.08888421317679861,-0.691211285650624,-0.6206475102588568,-1.0233904425805735,-0.10996977381170799,-0.8709360982922905,-0.625114628421811,-0.9637288493921212,-0.12335658202501937,-0.7366902978158277,-0.4151581712518028,-0.43450173234861644,-0.48806430026984365,undefined,1491593645572
903d185fccf839df,-0.4727122741978354,-0.8299297581692636,0.5827374359961989,0.5754623937319826,-1.1125021842120095,-1.987757517841156,1.9760512621841841,-0.6071139439564582,-0.2413779622158536,-0.683164804921649,0.2061810424104169,-0.08549513051159488,-0.9784355503565063,-0.7058242364238909,-1.014969372325264,-0.2514123053082205,-0.9263418226773129,-0.7105903671482472,-0.9706347015071874,-0.25607578208803045,-0.8000818346786994,-0.42189648969914667,-0.5242002949322353,-0.4588791009960281,undefined,1491593647061
903d185fccf839df,-0.6847725158573039,-0.7876646344625353,0.5406284682984381,0.5362075787157536,-1.1314998685525586,-1.9945053239957293,1.9735319031333587,-0.6376402255268713,-0.2394754116916893,-0.7368764578782777,0.23032066097773674,-0.1590214223907703,-0.24296735739750447,-0.7095275686841083,-1.011811496747341,-0.1705879632366627,-0.8983227016658561,-0.7379360175042925,-0.9614268998065214,-0.2781263546881932,-0.8092689640154572,-0.435400528152001,-0.45885686121695524,-0.46932141771122665,undefined,1491593648554
903d185fccf839df,-0.5919095213606193,-0.7847295448579321,0.659936617122545,0.6468228152434528,-1.0914267940509872,-2.00323298291331,1.962031760540334,-0.7213306212024962,-0.2889459617550262,-0.7820685653204337,0.26247301351349384,-0.22474459959850057,0.15740586007130128,-0.7391542785689454,-0.9791798605513666,-0.19483526444489396,-0.9242408324387338,-0.7820133058477504,-0.9338804552565849,-0.2699805753777813,-0.8168550209345983,-0.4333089269308083,-0.4712170115934948,-0.48260069943035055,undefined,1491593650068
903d185fccf839df,-0.40618356687265983,-0.7354202411737472,1.0204131068409756,1.0298561380847635,-0.9241710759508256,-1.9756710951315126,1.991546071524638,-0.4739457865321886,-0.2576783774161098,-0.7228787860461041,0.3368582244132766,-0.3406862087509395,0.10953514928698754,-0.7502642753495976,-0.9528640491335759,0.3285020384965789,-0.7964149702125639,-0.8131460562072862,-0.9112737596810647,0.16624199215890284,-0.7222182075955214,-0.4504796233482897,-0.5432416229873918,-0.4581612119510661,undefined,1491593651569
903d185fccf839df,-0.40479751906903433,-0.7254409862056835,0.8621864255821693,0.9507456253078245,-0.933232777612386,-1.979307037545153,1.9667233341095658,-0.6480796395636947,-0.2698604691138439,-0.6120656796796486,0.3666933471828154,-0.21980603818971506,0.05296067290552586,-0.7937784504521603,-0.9465482611665612,0.41942952048706167,-0.791208931386147,-0.8483888879879024,-0.9129459974500053,0.19502168738459022,-0.7331191958481995,-0.46752895414882495,-0.5259706696840277,-0.4797228596319374,undefined,1491593653438
903d185fccf839df,-0.48518646289259665,-0.7095915520284137,0.874308503932716,0.9431748671587254,-1.09112851140354,-1.987792456226468,1.9570009459906184,-0.7518828253351242,-0.23808125643214487,-0.6267670608250839,0.37560047575300604,-0.18239195743059436,-0.22991170900178254,-0.8234051603369975,-0.9633904016771806,0.4133676845857333,-0.7829728227251411,-0.847742928535625,-0.9139955192650187,0.1665191658328001,-0.7400150211721074,-0.4651000431500965,-0.49135445733826205,-0.48987162890770813,undefined,1491593654572
903d185fccf839df,-0.5641891863854848,-0.6004066308518702,1.0267929608193007,1.0286095544996587,-1.2330814153572172,-1.9812379771331035,2.0499041025139513,-0.1539764864751628,-0.2790589871550252,-0.6502612207362705,0.44813836633502746,-0.26312704696797484,-0.4649133801247772,-0.8187759901551854,-0.9654956471543067,0.2800075350066417,-0.7955116608249765,-0.8434048624211281,-0.9271915040401304,0.20074990886174954,-0.7385594947524221,-0.4650806905779564,-0.533865175879695,-0.47667254313609614,undefined,1491593656125
903d185fccf839df,-0.3812353275047763,-0.4700892135849451,0.9604398364204464,0.9871343987182492,-0.8291312384201849,-1.8762801268512437,2.0376702484208966,0.10910916573822219,0.18441747765555147,-0.7352072335049583,0.34311340565240556,-0.2552343499393061,0.2966661096256685,-0.7910009755396996,-0.9654956545165404,0.3749761231616704,-0.7145924383301935,-0.7757310241916578,-0.8927811874757553,0.21704146286500142,-0.6952534602972239,-0.45311466308177756,-0.547179601084336,-0.4647470500307757,undefined,1491593657556
903d185fccf839df,-0.11234854061846192,-0.4454345544358545,0.8711183228066041,0.8699874999215859,-0.7512993684399655,-1.8465357415580796,2.036886556513512,0.1554469636058005,0.2372745258804571,-0.6478841714992026,0.3342612257518762,-0.23754352552015975,0.6535204991087344,-0.7511901132711925,-0.9560219394359664,0.05774070383565371,-0.8204912200044723,-0.750658900737603,-0.9090487722073772,-0.11223889832783635,-0.7553265111404603,-0.4392087564215611,-0.4726777174205693,-0.55642120595031,undefined,1491593659064
903d185fccf839df,-0.17056103013270404,-0.43956436061265214,0.5769954657609266,0.697624268620303,-0.8079941304559884,-1.8416676308348428,1.998441424586492,-0.10087201878719475,0.28140289968204085,-0.5884530314461224,0.3241841082993306,-0.3013975213078711,-0.47361714572192515,-0.7215634163371298,-0.9591798665495257,0.1102764548137444,-0.7784314992661157,-0.7502979226324017,-0.9323691434832825,0.03997473109887221,-0.7284562866026267,-0.4447580646909644,-0.5033558325554158,-0.5807790580151451,undefined,1491593660568
903d185fccf839df,-0.6917025996010876,-0.6990252674482326,0.47874103837485177,0.4921499849806675,-1.3196972686617814,-1.9585977698991677,1.9293774526976968,-0.9476445054148044,-0.20136415696464208,-0.514203036261287,0.3572470512251699,-0.1786347796913606,-0.09065145944741532,-0.6974917404572487,-0.9328640477695013,0.4376149151321607,-0.6739130164426963,-0.7093491087977752,-0.933824480102812,0.5729765243883221,-0.6000037800996662,-0.4606355420168789,-0.36298994465250844,-0.6181527498707998,undefined,1491593662073
903d185fccf839df,-0.6612102897876361,-0.7389423311624754,0.4474786356784817,0.47085687491805767,-1.3662503357344833,-1.9652128101042055,1.9690060003734449,-0.6956028964707288,-0.1948506875202559,-0.40452675669793137,0.3760977422268444,-0.18172190326654714,-0.20815229500891266,-0.6891592315398318,-0.9307587654812062,0.5063155430039794,-0.6658421059892943,-0.7314004182727408,-0.9541921968951405,0.631028663438114,-0.6058578988736485,-0.46448836657434134,-0.2813257300995809,-0.5906991531668103,undefined,1491593663571
903d185fccf839df,-0.6639823163840677,-0.7189837919983559,0.4225960869604366,0.44903483849260095,-1.390637721090087,-1.9926931752853347,1.9870359454904631,-0.6130256446420649,-0.2626506907651333,-0.49087132084004836,0.3264971823946787,-0.2508872164566467,-0.3735238413547237,-0.7798909463821111,-1.01917992953962,0.1648328224697315,-0.7523795670252574,-0.8104418893899198,-0.9936402168564119,0.4383479137782435,-0.6966973454539028,-0.49154056881488617,-0.28985804972208656,-0.5080199588819273,undefined,1491593665113
903d185fccf839df,-0.553101183515988,-0.7301370988836565,0.6012396224620201,0.6579293017056148,-1.2734733442083925,-2.0100972510414614,1.883758206446633,-1.2903386448099274,-0.2243387629931724,-0.5088577522343941,0.37287390798604,-0.27913051057582566,0.3619443516042781,-0.7567451148992121,-1.0181272994388233,0.11229701496219771,-0.7737730863092764,-0.7921143499612242,-0.9737832670256324,0.3590613183637864,-0.6958692900584418,-0.48957383146741196,-0.31823141683337547,-0.532128114058745,undefined,1491593666559
903d185fccf839df,-0.5531010799997588,-0.8023400021085719,0.8188014362613536,0.811930869911277,-1.1583558246182861,-2.0294648745866195,1.967954077940465,-0.7132678807825379,-0.2027729931643647,-0.4471125127516635,0.26552840568970687,-0.2863111839057796,0.7666694518716578,-0.7761876076465065,-0.9865483080681133,-0.33021605896660344,-0.9832944205246769,-0.8253876355605516,-0.95748069823351,-0.14346694757762887,-0.8174829606095272,-0.48108388704396804,-0.5001751182946519,-0.5144636174697891,undefined,1491593668058
903d185fccf839df,-0.5253808140354437,-0.8123192789976297,0.8972766390107546,0.8404602117317385,-1.1329604410969496,-2.051769669783061,2.0098284819642536,-0.4333747518125285,-0.2012842255833525,-0.5381630454364776,0.18727288670111233,-0.17751083661050088,-0.15592970142602494,-0.8234051279600612,-0.9812851575641293,-0.4069991252852862,-1.0437415509433214,-0.8616310729238856,-0.9426964371202418,-0.23927607741955398,-0.8461190848900398,-0.48058738405147644,-0.6072523664362698,-0.5217596914464318,undefined,1491593669576
903d185fccf839df,-0.37846326640293504,-0.801165964805331,0.8953629877815964,0.8287063481200315,-1.0400805973797191,-2.0516951336519593,1.9911594930342866,-0.529376660505937,-0.23088487341054947,-0.5900273826793863,0.13957699966817694,-0.16529730437154322,-0.8348234180035651,-0.8095176303653993,-0.9581272143620275,-0.4009373317810401,-1.019442906066306,-0.8522899815367891,-0.9209993271238502,-0.2779415746756064,-0.8414718383833106,-0.47538659384287574,-0.61621130770358,-0.5121328094074322,undefined,1491593671509
903d185fccf839df,-0.5018185879657759,-0.7976438748166027,0.9393856067085155,0.8419302407422422,-1.0743216800100488,-2.034973525209554,2.0075063628870495,-0.4182862874779414,-0.25025266616521735,-0.4562687465952612,0.14772638033307497,-0.038468020526185843,-0.8261196524064172,-0.7715584439400816,-0.9349692785221597,-0.2776801666649051,-0.9631668718615536,-0.8305869837702968,-0.9009254763944592,-0.19180267012211502,-0.8071178149688576,-0.46258826721566587,-0.5960027718613975,-0.5024251257989095,undefined,1491593672570
903d185fccf839df,-0.49627456927832264,-0.8410830285195738,0.8283712172288411,0.836134020052156,-1.06260627195346,-2.0321458292652386,1.9639488909316583,-0.7151983328553078,-0.29085106681067374,-0.5196313694696971,0.15905474233795414,-0.02133857646925197,-0.8391753008021391,-0.6854559057550018,-0.9433903487774694,-0.18069104662614463,-0.9525412569403653,-0.768175824211629,-0.9015621864166851,-0.0668134892154211,-0.7588993003126248,-0.4665175864029917,-0.599394739750386,-0.5232869912380944,undefined,1491593674083
903d185fccf839df,-0.40202559598883203,-0.7888386352307857,0.6797145710744718,0.6723574098301486,-1.008935500753675,-2.0216106799888514,2.0140440595352826,-0.36906982603298577,-0.2959775294380341,-0.5760226113647031,0.21953824684473375,0.013673447437642478,-0.9479723707664884,-0.6586067290611108,-0.961285141475587,-0.20695892211518999,-0.9078366394318456,-0.7312104331847586,-0.910049317955041,-0.029287475212680457,-0.739652433604724,-0.4701811156283235,-0.583832832670722,-0.529480157471778,undefined,1491593675563
903d185fccf839df,-0.23431771086144812,-0.7929477548316316,0.7090638308155824,0.7333219777862404,-0.9456990353771747,-2.0149374097606123,2.0228355024657074,-0.2883489670518153,-0.296309468033554,-0.36288290430264475,0.1808469480712669,0.04072356043511814,-0.7956564728163993,-0.5882433384123334,-0.9570745916234645,-0.18473225171721586,-0.8958742681872505,-0.6935990804300411,-0.8991482863644955,-0.018816529495583056,-0.714735604169699,-0.4433166060922701,-0.5735617925950859,-0.4947280392268739,undefined,1491593677071
903d185fccf839df,-0.2010534262096798,-0.713113642017142,0.9361954255824035,0.9208149033563157,-1.0144794898789986,-2.009195834790047,1.9459846799022524,-0.8047173110583374,-0.28081878485049977,-0.14315512241666675,0.202357618118986,-0.09273475771582923,-0.7042669340463459,-0.6234250240236412,-0.9928640886728942,-0.18675285426275148,-0.9234149527596532,-0.6772474194508384,-0.9292905478414349,-0.09682505307641029,-0.7346237094427225,-0.44830818408163253,-0.5645557740501912,-0.5180759738738212,undefined,1491593678572
903d185fccf839df,-0.4020254579671931,-0.716048717007749,0.6707826738500369,0.7016652713410448,-1.0747331030623297,-1.9975659435007689,1.8848548412998651,-1.2208845209133896,-0.28357508320739333,0.08211359014623595,0.17754586253100507,-0.013748597148155439,-0.6563962232620321,-0.6669392185523658,-0.965495632429839,-0.2594947861521668,-0.9948240516207273,-0.7034848048737333,-0.9196629367969404,-0.25224156374659434,-0.7703679624086874,-0.450230898523658,-0.5573631608562689,-0.510290056714475,undefined,1491593680061
903d185fccf839df,-0.4158856254547604,-0.6397366795679916,0.7371357982488912,0.7853360972026514,-1.0378691685654193,-1.9937762711642009,1.9167622723885653,-0.9906152826808899,-0.29423114140204376,0.002552383948052471,0.204765082959945,-0.09064751009865066,-0.6389886920677362,-0.6049083627225543,-0.9097061045673995,-0.19887649780068672,-0.9912476627852501,-0.6732639978666856,-0.8920465241504715,-0.2634824315744585,-0.7499789810640582,-0.42845328759339696,-0.5914443536859922,-0.49676795478062324,undefined,1491593681550
903d185fccf839df,-0.13452468437909448,-0.5364219522146504,0.8009371335385851,0.8425679824792323,-0.9278739232677322,-1.915141155078701,1.967493860763044,-0.553374198476654,-0.3763753610571835,-0.16631691374030425,0.2353362082387072,-0.05314247442137395,-0.9305648395721926,-0.6724942137049982,-0.9128640095942576,-0.20493830543729358,-1.0184316171930823,-0.6636885880562888,-0.8856234520593007,-0.2604335396453399,-0.7483641486729465,-0.45256404085370683,-0.5875398708499595,-0.5095593839687966,undefined,1491593683082
903d185fccf839df,-0.20382548731152106,-0.56812082056919,1.0874041149828826,1.1257142729791887,-0.9934246727324754,-1.8948115547806814,1.9631099726277763,-0.5739694468469195,-0.3806182464945798,-0.3170242045458362,0.2514763453945067,0.030282550020727307,-0.8304715352049912,-0.6595325475565438,-0.8981271513719332,-0.1726086223116414,-0.9809486989779387,-0.6840996653624231,-0.8736449108902848,-0.1672729454222711,-0.7386520387059702,-0.428544280708223,-0.5588531443015032,-0.4998405602426489,undefined,1491593684599
903d185fccf839df,-0.3909373515814671,-0.7137006862432558,1.125047134068426,1.1031836767582908,-1.0057880820410972,-1.9046875283839548,2.022404208412539,-0.20372697834134412,-0.3809410721764415,-0.3757496390437631,0.24984785949729144,-0.04218027915396842,-0.8696384803921569,-0.6836042299118121,-0.845495521174118,-0.1887734568082871,-1.003410233434402,-0.6734159879114464,-0.8584128537340998,-0.1447912151245419,-0.723418498073232,-0.40790865868511716,-0.574081615926427,-0.47053841118891626,undefined,1491593686068
903d185fccf839df,-0.4380619762478513,-0.7178097327741209,1.0637975878878925,1.153716443670213,-1.0161869231573561,-1.9258277037843674,1.9773293309546887,-0.5246720716229603,-0.3390068724235481,-0.4286280588175042,0.21433051004207138,-0.07591815465226336,-0.7434338792335116,-0.6669392120769785,-0.8486534188387421,-0.19281474669352294,-1.0046636774302697,-0.6584449089030652,-0.8518848290332334,-0.1125776673855336,-0.7092075176886804,-0.3790101940208185,-0.592255896666471,-0.47781446175310643,undefined,1491593687556
903d185fccf839df,-0.44221987812085967,-0.7001992828304792,1.135893190795918,1.1333624685304222,-0.9637812999371899,-1.9351423316023235,1.96607113028032,-0.5996702776180577,-0.3180409124800516,-0.2249919996133187,0.16273896932467266,-0.0394457332606128,-0.5475991532976827,-0.684530067833407,-0.8139165003544727,-0.13017582753178572,-0.9732465817730614,-0.6871204779961027,-0.8282006242034471,-0.13154855002138927,-0.7101972991126049,-0.3824880909064549,-0.5733014626421021,-0.42243308156854564,undefined,1491593689067
903d185fccf839df,-0.37291914419925254,-0.7465735553660459,1.0433814960559638,1.0983026331905672,-0.7370433951813868,-1.9764211099943083,1.9403305993128486,-0.7479503985318974,-0.32279818131547333,-0.07216173560321004,0.1234493694164899,-0.0853434539357027,-0.5388953877005348,-0.7234150792295448,-0.8844429158881718,-0.21504133229733244,-0.9410406698664074,-0.7326606748286018,-0.8490861041993147,-0.21331429648546696,-0.7485472915785549,-0.3877281718725896,-0.581483380627754,-0.4338160446660464,undefined,1491593690577
903d185fccf839df,-0.26758216804026513,-0.7407033907708358,0.8411319417332889,0.8863034623250148,-0.6438858333850086,-1.97961915504856,1.9770453184657457,-0.4883189152113915,-0.3053334984829305,0.19186357889661862,0.1477984377141567,-0.024435976305577773,-0.8348234180035651,-0.6743458895481879,-0.9065481995405416,-0.21504136056205397,-0.9877289342683856,-0.7315270770189454,-0.8537669713364544,-0.2134220832476867,-0.7459457651521512,-0.40940299249985046,-0.5938250332541225,-0.44490704515526025,undefined,1491593692064
903d185fccf839df,-0.1705610646381138,-0.7101785816405313,0.6318641414153374,0.602849598694673,-0.6366858461542617,-1.9801688564263362,1.948414616207618,-0.6622449629830772,-0.32524571029524674,0.3252141018421477,0.09236121372459725,0.019091686485374404,-0.8174158868092692,-0.7141567453413078,-0.9412850738514081,-0.2514122911758597,-1.0070548439032505,-0.7486006938652774,-0.8623940380707946,-0.20812501773145564,-0.7569556509068864,-0.44133139940599403,-0.6102291060200721,-0.4912274434480163,undefined,1491593693553
903d185fccf839df,-0.35905911473332425,-0.7201578366085949,0.6905613902128118,0.7267682442032354,-0.8833060022891651,-1.949665139781481,1.9364489989252893,-0.7713641674384905,-0.28171300282406414,0.2922555851404085,0.05858133475951146,0.08278985248190548,-0.9566761363636364,-0.7030467356098811,-0.9602325040125563,-0.1503819377813065,-1.013888326409699,-0.7839258540188964,-0.8780738915451642,-0.11307041171639874,-0.7643520725355787,-0.473226976945783,-0.583861117619254,-0.45634766649471753,undefined,1491593695071
903d185fccf839df,-0.47409828749605115,-0.7183967770002345,0.8321995362349552,0.8500730167593998,-1.0946770774899703,-1.9531846206260965,1.9074869477158725,-1.008331706583738,-0.275322151433339,0.18780047897548244,0.06782596183565708,-0.015009272996716776,-0.9653799019607844,-0.7095275751594956,-0.9728640873088196,-0.2554535245316525,-0.9953988726822214,-0.7877256198986683,-0.9181306347194662,-0.13108659134038828,-0.7902562026176666,-0.470896317821754,-0.5746425806181951,-0.5268447727129475,undefined,1491593696558
903d185fccf839df,-0.5919095903714388,-0.7630099753134446,1.0306210256884654,1.071114571267641,-1.1791432182750157,-1.9918616370915925,1.9408539244407441,-0.8577997464014258,-0.2940336364185096,0.03846867430628296,0.07178644968113541,-0.013434246838349066,-0.9044535427807487,-0.7456350922170109,-0.9844430478665197,-0.2554535245316525,-0.9671692783414242,-0.7733815023863254,-0.9212931926179011,-0.09508502559079955,-0.7825873915053184,-0.4660415369391525,-0.573394183395222,-0.5253492404815908,undefined,1491593698089
903d185fccf839df,-0.7249669360109705,-0.788838664458778,1.0318970473115203,1.0175914620353796,-1.259741941932889,-2.022626228691937,1.9982678491777173,-0.5265356781821225,-0.29778004088322785,-0.10252720688967343,0.1087572901607612,-0.06870306710735453,-0.6346368092691622,-0.764151805321196,-0.9886535609074731,-0.45549367117230566,-0.999493779874076,-0.7681948220405247,-0.951421460748355,-0.22768104047306917,-0.8151491707519445,-0.467760959560727,-0.5860816656635691,-0.5139748949097288,undefined,1491593699557
903d185fccf839df,-0.7956537177362031,-0.7853165452420574,0.9706480094048855,0.9934241440932327,-1.287523611328234,-2.012701340160395,2.0462197337198393,-0.21063963973863473,-0.2967364083298622,-0.20897606916379027,0.08818099791349054,-0.02372220354917889,-0.7826008244206774,-0.7456350986923982,-0.9981272759880473,-0.4716586187278375,-0.9861229282742101,-0.7312800931235403,-0.9688715076314404,-0.2917539710057812,-0.8143918686006444,-0.4501172731287086,-0.5922267329826945,-0.5266774455657343,undefined,1491593701062
903d185fccf839df,-0.737441090200322,-0.6861108936475736,1.0229651500870856,1.0485535001120054,-1.3390549523706696,-1.9953648125490722,1.9912226072698926,-0.566208192437586,-0.27894204183308546,-0.33678474515314627,0.10991113751728783,-0.008873493552776349,-0.7651932932263815,-0.7502642688742104,-1.037074678064335,-0.536318041508585,-1.0221600589406588,-0.7393545954651052,-0.993556256746913,-0.3625714246153479,-0.8421797512140811,-0.44444535464942764,-0.5840956343307337,-0.5166567186150554,undefined,1491593702601
903d185fccf839df,-0.6071557021464024,-0.6731965929168954,0.9968068338829349,1.0500274751857386,-1.2002391834270518,-1.9757106917044174,1.9916091868077654,-0.515883221215214,-0.30896483228711813,-0.20185813163256988,0.060843880476474536,0.11178015441215673,-0.7913045900178254,-0.7428576237799374,-1.0212851750167462,-0.4817616314555156,-1.0232433863609887,-0.7677831796827477,-0.9791218348623105,-0.3615243341482964,-0.8446056004466499,-0.44041980049181295,-0.6029039709069728,-0.48660377054001913,undefined,1491593704072
903d185fccf839df,-0.4034114712654088,-0.7448124811436894,0.9196068903457405,0.8735558294965116,-1.0136566375088047,-1.9921667667835692,1.9238180481755496,-0.9378630209385578,-0.3273282498281726,-0.00504233332790318,0.029419149653818366,-0.004857334019632598,-0.9479723707664884,-0.7410059479367478,-1.0339167877619444,-0.3362778524708495,-0.9972735314163323,-0.7749204067088684,-0.9601534802392002,-0.25809297837418227,-0.8205007049630013,-0.4415601322757054,-0.620537905348299,-0.4608322084930473,undefined,1491593705572
903d185fccf839df,-0.4436059259244851,-0.7911866952232712,0.9004665659999171,1.0836655424265091,-0.8697494522141045,-2.0127688876310956,1.9487223131643217,-0.7654718797628456,-0.2886535770259029,0.012189256867585626,0.04606999546182757,-0.00847222081227825,-0.9740836675579323,-0.7382284471227379,-1.0012851736526716,-0.27565962064881255,-0.9702363812386843,-0.762970142881033,-0.936035473557137,-0.14271242505660492,-0.7857771773118596,-0.44547060896409474,-0.5875575528656408,-0.4586938009722387,undefined,1491593707062
903d185fccf839df,-0.6293318804124446,-0.8334518043160035,1.0631597041448397,1.06348570190542,-0.9500807468867529,-2.021231012936259,1.9429130725992796,-0.8393413995231856,-0.2879761143776351,-0.24340831378011907,0.10308180804548074,0.020883373748617262,-0.9305648395721926,-0.7197117534447147,-0.9991799208133116,-0.1463407185578745,-1.0167363410560546,-0.7661429476910898,-0.9099653558941995,-0.15419966723079576,-0.7710758697996754,-0.475146543778089,-0.6374588890699104,-0.497546898506854,undefined,1491593708547
903d185fccf839df,-0.7083347419269717,-0.812906279381755,0.7550006092455585,0.7279404229628964,-1.0460565885073685,-2.0414208582283955,1.9810058077196055,-0.6175720709136937,-0.27496321233867127,-0.43469617164112956,0.12469717826970382,-0.006376105071111392,-0.9566761363636364,-0.7224892477833373,-0.9433903782264046,-0.04328970608834259,-0.9895993252460152,-0.7426097292848812,-0.8623170734692382,-0.11054507410786493,-0.7412021430382081,-0.4565230615632448,-0.6079658897193877,-0.4928407919687815,undefined,1491593710056
903d185fccf839df,-0.46994017859058446,-0.7342462111775043,0.5157459195803931,0.537923328432164,-1.105281628836032,-2.0203598776740006,1.9780472803942868,-0.6283730685993993,-0.29973815433258405,-0.33553361889369093,0.14475464012614306,0.029322062582751586,-0.9697317847593583,-0.699343409825051,-0.9276008972655171,-0.13017584166414647,-0.9913371555280989,-0.7071959084845185,-0.8432997421059018,-0.2069239441561723,-0.7361864557437733,-0.47540291799202966,-0.5458684910980415,-0.49693097992981744,undefined,1491593711775
903d185fccf839df,-0.46994017859058446,-0.7342462111775043,0.5272303683248365,0.5542117306058612,-1.103954774184139,-2.0192045751016754,1.9833778967289446,-0.591945046995462,-0.29965477619251524,-0.3345668978662391,0.14635006685401264,0.03858256904826883,-0.9305648395721926,-0.699343409825051,-0.9328640477695013,-0.13017584166414647,-0.9895993252460152,-0.706809598914661,-0.8399272793734504,-0.20635420155349882,-0.7348002383695863,-0.47494977804047156,-0.5459766452291936,-0.4984082529456714,undefined,1491593713458
903d185fccf839df,-0.43944785152442817,-0.7148747016255024,0.3409307030849236,0.32607494728543157,-1.1155158985436089,-2.0170267376212663,1.9643065421076702,-0.704788589574154,-0.27701410200477244,-0.30002447352485767,0.1227376461726078,0.00451822154651748,-0.847879066399287,-0.6743458895481879,-0.9244429627897239,-0.13017584166414647,-0.9353148181738765,-0.6851699310721693,-0.8250940406880355,-0.18384167581880662,-0.7148983049038059,-0.466816659746343,-0.5360924304881108,-0.473863069737677,undefined,1491593714566
903d185fccf839df,-0.4948884524638777,-0.6097988854358085,0.3741072652843508,0.43980593774458987,-1.0699502603951232,-1.937189735329771,1.9345055820220682,-0.811071888443009,-0.28003818171859757,-0.2185604802867677,0.10594745793944672,-0.02383317878618823,-0.6607481060606061,-0.687307594548966,-0.9118113647689932,-0.1039079379103796,-0.8836866773262682,-0.6673870256357659,-0.8306704973234919,-0.1206310569521672,-0.7028268709757848,-0.43474204757368456,-0.5299533106251174,-0.45070104074355316,undefined,1491593716066
903d185fccf839df,-0.7014047444467124,-0.5939494951005272,0.5489224817798202,0.5329744410855465,-1.07492853832989,-1.8880218249980254,1.9406803647447959,-0.7223505954122867,-0.31578402248733184,-0.31796108993769656,0.0708211958336684,-0.06668410205101749,-0.691211285650624,-0.6493483822220992,-0.8970745065466688,-0.10794912886909007,-0.870012693504391,-0.6529099168487912,-0.8389337309260283,-0.11166915958884588,-0.7022259694223207,-0.4263978437929405,-0.4997282291387677,-0.4295649901672105,undefined,1491593717594
903d185fccf839df,-0.769319430564694,-0.6121469454282941,0.6171900198186809,0.7295299556880046,-1.115330754616557,-1.8289872579786526,1.9075342894158271,-0.9064335124288683,-0.3542297692834951,-0.24961756885763892,0.13349800582507193,-0.058679677196050294,-0.44315396613190733,-0.6197216917634238,-0.8991797667482624,-0.14432010187997812,-0.8774685435973573,-0.6811991769090276,-0.8799700269624224,-0.17235443189451552,-0.7336581348633124,-0.4371046606850148,-0.5327441830175641,-0.432064243103302,undefined,1491593719081
903d185fccf839df,-0.5073626756640487,-0.6749576379112595,0.6267600549231179,0.6149183359684883,-0.9301059244443611,-1.8793803468918098,1.9610008796776286,-0.5709398717287779,-0.40749554529396076,-0.10733378929829127,0.09659930846906753,-0.12179292671721582,-0.7434338792335116,-0.5965758473297502,-0.8854955533512024,-0.26555656552405216,-0.8767994793127835,-0.6862845290763403,-0.886008274369737,-0.1916640812187018,-0.7436850353227242,-0.4170084063238303,-0.5597117345512294,-0.4379625354615334,undefined,1491593720603
903d185fccf839df,-0.09571631202905342,-0.7142876720133848,0.7288417847675092,0.7079814462138755,-0.7670056227703924,-1.960645173573611,1.9885849149196164,-0.4329402400499045,-0.4006659468114978,-0.04427713130047072,0.11864928365168682,-0.055953058763301616,-0.8826941287878788,-0.5567649785858557,-0.8697060650280812,-0.2594947578874453,-0.8494520585368003,-0.6609780849843189,-0.905389440008768,-0.21077354799231282,-0.7399542389738734,-0.4194620786806038,-0.612024325714431,-0.42343935269440097,undefined,1491593722059
903d185fccf839df,0.1024837276374381,-0.8176023993667261,0.6682306306039271,0.6336695043571763,-0.558781977445073,-2.006491587455588,1.9497531992646362,-0.6859891689243227,-0.2405411310189687,0.18244066505710393,0.12359176750322451,-0.005233381301071927,-0.8565828319964349,-0.566949137444913,-0.8728639700549393,-0.1443201442770604,-0.8604389969334819,-0.6820287885000732,-0.9065998886452227,-0.13064004175352067,-0.7352771250857552,-0.4307249062558004,-0.5668399749422411,-0.39880428837736887,undefined,1491593723561
903d185fccf839df,0.14129216899829863,-0.8252336235702964,0.8136970956321846,0.8568880484254764,-0.6753703497751762,-2.0399464506683187,1.9991067706241645,-0.40435235447665946,-0.2041488524220849,0.0011971827642804369,0.15276109376763927,-0.02205545337056033,-0.9088054255793226,-0.5863916690445311,-0.8570744743695843,-0.16452619799713813,-0.9045760531387637,-0.6783683469770273,-0.896944289721047,-0.03538525975749536,-0.7129581891799376,-0.4447272884104662,-0.5518190136626452,-0.4194271949041146,undefined,1491593725066
903d185fccf839df,-0.21214149808999608,-0.7371812715541151,0.7888150551880384,0.7474701663125809,-0.8473163502060467,-2.000144410528937,1.9544026980734928,-0.702988733713994,-0.2889139001064885,-0.21901457497007631,0.11422060899524976,0.019183912897728063,-0.9088054255793226,-0.6252766998668308,-0.8307586408650922,-0.22110323886046468,-0.8947343069816782,-0.649566119209762,-0.8578810942356516,0.03483165149103355,-0.676837769244034,-0.42518766654440554,-0.5477016671883935,-0.407466441864954,undefined,1491593726553
903d185fccf839df,-0.4089556279745011,-0.788838664458778,0.8589962444560574,0.8502594405915015,-1.0458714396990452,-2.0323787524458727,1.9649035132552881,-0.7054992416195043,-0.3465337651904238,-0.4791234329676038,0.11014542359226373,0.06529952270915095,-0.8304715352049912,-0.6002791925407421,-0.831811270965889,-0.17867042994824825,-0.8891564641853605,-0.6456460282638395,-0.8818241815327716,0.0145364986831146,-0.6876593220986968,-0.4182952896187206,-0.5220010363574119,-0.3955358219340789,undefined,1491593728064
903d185fccf839df,-0.42974582744773737,-0.8158413836003542,0.7664845497161031,0.8289217923997401,-1.0026200876973383,-2.027389522826315,1.9621685187006184,-0.7185488457412412,-0.30177606631204507,-0.25564257972210924,0.08189804015555165,0.026356068068605305,-0.9349167223707665,-0.6530517080069292,-0.8644428924373958,-0.20291771702411873,-0.9311061707389134,-0.6629286333034919,-0.8860852390691663,-0.05062971986080667,-0.7098232751696524,-0.40966967080473426,-0.5210615478747396,-0.4237939112735302,undefined,1491593729560
903d185fccf839df,-0.24263389416697184,-0.8176024139807222,0.5291440195539947,0.48109365097774415,-0.9658487215270066,-2.0395015669385765,2.0006925426365036,-0.4609473240012669,-0.2472201496398754,-0.2389173641432897,0.14081962266672957,0.019324075519775732,-0.9697317847593583,-0.6021308554331573,-0.9054955620775109,-0.29182445514545824,-0.9056121421644798,-0.6439298019501895,-0.8921724653821469,-0.09445369429509408,-0.7107346493412687,-0.4179303574034509,-0.547362800090294,-0.4738376149181684,undefined,1491593731079
903d185fccf839df,-0.3063904713794867,-0.8446051331222983,0.6535565090072706,0.6896123312186441,-1.0021572336852207,-2.0252769031307047,1.9518465238692198,-0.7834679408223473,-0.2232678407349882,-0.05160932553100886,0.1671018505701797,0.0387755480574756,-0.9392686051693405,-0.6734200386758185,-0.9107587346681963,-0.33829849741346746,-0.9495395847799897,-0.6588502166340183,-0.8944324354849426,-0.15187449677195483,-0.732956660585087,-0.41344059217989587,-0.5138882918903416,-0.46872673844872753,undefined,1491593732616
903d185fccf839df,-0.3687612078208345,-0.8610415676836933,0.7230998145322368,0.7548919622223983,-1.0794850975987547,-2.0264205590095177,1.8774493074135856,-1.2989052188008148,-0.23805705386653325,-0.18675985252672084,0.14449489578122848,-0.011128763661090483,-0.9958430815508021,-0.6678650370477988,-0.9507587815697485,-0.295865688501251,-0.9287539856445609,-0.6713894456246277,-0.9209083681359079,-0.2251249018272514,-0.7562648474984595,-0.45046941616015174,-0.5446351156977193,-0.50825646637763,undefined,1491593734854
903d185fccf839df,-0.36737519452261874,-0.8721948672619959,0.7492581307363874,0.7820800189202722,-1.059695418201185,-2.023758238622919,1.8677137655634724,-1.3601763411192598,-0.23486426459396592,-0.18329703720984358,0.15404649939073292,0.023446184254834686,-0.9262129567736186,-0.7048984114530708,-0.9423377260389063,-0.23120625158814279,-0.9504495665572187,-0.692338823314977,-0.9229444402539475,-0.23445636071006273,-0.7645310353850713,-0.45076729936010057,-0.5456215605321838,-0.511708940180025,undefined,1491593735563
903d185fccf839df,-0.35905911473332425,-0.8164283547564871,0.8596343823360595,0.854578997132199,-1.0177297711314122,-2.0069271557130266,1.8928547107689289,-1.164425705222309,-0.23106123555212577,0.04777325055313898,0.1678140163829835,-0.09644738934647923,-0.852230949197861,-0.7132309138951003,-0.9233903326889271,-0.174629224857177,-0.9518631302806355,-0.6824024333286659,-0.8753591292431006,-0.15424585805726088,-0.730027479852373,-0.46025848852043705,-0.49678386536451363,-0.5232449040637412,undefined,1491593737057
903d185fccf839df,-0.44499193922270086,-0.854584388090362,0.9623539959235035,0.9462046086442324,-1.0231194788522138,-2.021831957943326,1.9515598674352692,-0.783043695920795,-0.2034575062204692,-0.04179339766844091,0.1654992584918895,-0.04886239330746965,-0.5911179812834225,-0.7132309268458747,-0.9244429627897239,-0.12411406229226116,-0.9438657196654976,-0.7175692693422201,-0.8635695033379769,-0.21787223679528628,-0.75071114448428,-0.47644714043183034,-0.5285256684855966,-0.5097068550423414,undefined,1491593738552
903d185fccf839df,-0.5752773272766205,-0.8522363134838802,0.9355572877024013,0.9789809693743673,-1.0958187897772182,-2.0448262080275335,1.9808900890345524,-0.6325830465704554,-0.23311713101927226,-0.1024552134463407,0.17811414677169546,-0.10082000294524,-0.38657948975044565,-0.7724842883370636,-0.9181271527360079,-0.18271159264223719,-0.9765968610961974,-0.7480623932042291,-0.8284734995279014,-0.23801340024846174,-0.7561004784404792,-0.47488876365031896,-0.547659742586878,-0.49160273676813854,undefined,1491593740083
903d185fccf839df,-0.5932955001534254,-0.8575194776949651,0.9355572877024013,0.9869582909345409,-1.143338712521575,-2.0518581808117284,2.000232316031387,-0.51293094970155,-0.23001254856552278,-0.3799701341036572,0.19664636689202353,-0.035606658376819623,-0.7695451760249554,-0.750264262398823,-0.9254955928905207,-0.11603159558067562,-0.9613917918579097,-0.7517355001329398,-0.8545226259018205,-0.22637217702577242,-0.7601257511200813,-0.45458733974311916,-0.5739878095328587,-0.5065274705971085,undefined,1491593741560
903d185fccf839df,-0.5170646997407394,-0.8798260476235777,0.9011049580168687,0.9505333974542357,-1.01985892314569,-2.0464659918968984,2.001176420188684,-0.47391334922310535,-0.20956360477593175,-0.49827885369537783,0.1622967275909493,-0.018307066272451614,-0.8957497771836007,-0.6678650370477988,-0.9149692624336174,-0.12411400576281809,-0.92333686538096,-0.7070692474904277,-0.8610086698903532,-0.134258675612197,-0.7317813834255438,-0.42592705890833515,-0.5617959406515964,-0.48869693252677426,undefined,1491593743057
903d185fccf839df,-0.2856002719062504,-0.8986105567914545,0.7148052927769559,0.7481321383106752,-0.9151093798487133,-2.023108381063706,1.9327225647984982,-0.8805915505973839,-0.07710810349208537,-0.30060925836227875,0.1901354691719208,0.05015449191182311,-0.852230949197861,-0.681752541117848,-0.9149692624336174,-0.09380491105034074,-0.93661572193826,-0.7023892032423149,-0.8687541400630192,-0.11137658267692029,-0.7248581658989481,-0.41266142339178585,-0.5696169003837301,-0.5348447808093184,undefined,1491593744559
903d185fccf839df,-0.37707728761012904,-0.8146673389901152,0.7352218928827836,0.8170419158920905,-0.9591013040777212,-1.9954207143519125,1.9337113709008293,-0.8660673371808757,-0.09092601701776067,-0.059007802798195445,0.23688101983947835,0.09192547614370629,-0.6215811608734403,-0.5706525215082286,-0.8949692463450751,-0.06147517139524546,-0.8991784911946906,-0.6408076583253955,-0.8484913759354398,-0.014828327251638648,-0.6716965172496387,-0.39244834930859834,-0.548333979179435,-0.537616368529127,undefined,1491593746097
903d185fccf839df,-0.3562870018733684,-0.802926995185699,0.6376063657875591,0.6727228983617733,-1.0620919858892206,-1.9816665567038647,1.9148951140244204,-1.010539916786694,-0.10448993283074119,-0.011592442406686708,0.24202445319372237,0.05354505538965127,-0.8348234180035651,-0.5280641454749371,-0.8781271426456247,-0.004898144664279689,-0.8784382533397805,-0.640978648236545,-0.8525705177653795,-0.000461580033082108,-0.6656705800293806,-0.40536504516260846,-0.5231110428488738,-0.5631237074419794,undefined,1491593747576
903d185fccf839df,-0.6334899893179113,-0.8404960135214525,0.4060075517237736,0.42184099118593577,-1.2760344885304713,-2.0313282660311254,1.9276207471265472,-1.0180589963502622,-0.2508562878791533,-0.37887936060998273,0.15679027780766308,-0.19116593203989843,-0.7651932932263815,-0.5604683432230095,-0.909706089842932,-0.0028775421187440704,-0.8744108872610039,-0.6445060986565957,-0.8778499955239847,-0.05297027823756758,-0.6838537399457518,-0.4250656356196958,-0.5133049223640612,-0.5272034607034072,undefined,1491593749050
903d185fccf839df,-0.6362620159143428,-0.8692597776573928,0.250332913711077,0.2059768494407021,-1.3159121360266341,-2.0376521512147847,1.9565696529849719,-0.8384724676266491,-0.2462032137964327,-0.42712018256959017,0.15149395882838443,-0.3099859818685078,0.8145401626559715,-0.6178700353463961,-0.8949692316206076,-0.008939363887711695,-0.8420172042143059,-0.6617317061788683,-0.8924523401049949,-0.12003050773881388,-0.7078687925921325,-0.4483375481389373,-0.47141597955259695,-0.5483023966861641,undefined,1491593750582
903d185fccf839df,-0.6293319494232641,-0.8516493277137511,0.21141438127637757,0.1976934867422568,-1.2333694143821659,-2.026721031301262,1.9878485552844907,-0.6085958592010979,-0.24259021529651112,-0.4605932965634021,0.18572629048605488,-0.3399147465580931,1.0277824197860963,-0.6928625702754365,-0.9360219454341254,0.15877108549492847,-0.7789088475116663,-0.7131298773469515,-0.9226295854956255,-0.05819035180927577,-0.7221692699432113,-0.46171614784739845,-0.5516162066903363,-0.5588888047625087,undefined,1491593752073
903d185fccf839df,-0.6002255666445041,-0.861628597295811,0.4506685626676442,0.4904640946785986,-1.1701740877447646,-2.0079263996160988,1.9091884237479595,-1.1055935238124648,-0.27885938705837626,-0.45371902742952497,0.18330976203055124,-0.31025294219225413,-0.12546652183600712,-0.7048983855515216,-0.9486535066436873,0.26586327479081007,-0.7772486316337768,-0.7609942661755899,-0.9438369177886222,0.02496125450264632,-0.7373071139376485,-0.47881548152523035,-0.5530277524697284,-0.5134207709778128,undefined,1491593753554
903d185fccf839df,-0.4879584032255038,-0.8170153697546084,0.7830728308158167,0.777820138375159,-1.1914757654111987,-2.005289700921149,1.9326883674020137,-0.9410166129311658,-0.2591102499196755,-0.5216520654187253,0.26640372353463915,-0.23462527698241856,-0.321301247771836,-0.6854558928042273,-0.9518114043083115,0.30627549528985165,-0.7123919345512104,-0.7475747587280529,-0.9336145767980609,0.10552592035065275,-0.7215898160923868,-0.4377487912017655,-0.5216883878280634,-0.42127977011812745,undefined,1491593755055
903d185fccf839df,-0.6154718164411066,-0.6373886488034984,1.1224945825484174,1.1985922650672813,-1.2838824716218464,-1.9459267107303575,2.0115615261131228,-0.3831113437334,-0.24393786978378096,-0.4717877977191373,0.377926671002984,-0.055011211105897004,-0.5301916221033868,-0.7252667550727344,-0.9602324892880888,0.3507288784828822,-0.7550851979134556,-0.7836028746886292,-0.9318163962926477,0.20843373300482348,-0.7202049504663464,-0.42484477748141986,-0.4628228404862186,-0.4126528173158302,undefined,1491593756575
903d185fccf839df,-0.6113137420410496,-0.6274093499934463,1.3496271938630362,1.4498619842202358,-1.2491065338938154,-1.9664566252771989,1.9540976293489698,-0.7792566343465979,-0.2490423171340843,-0.49502328300187676,0.43409522016588425,-0.16267223465376365,-0.5780623328877006,-0.7715584439400816,-0.9802325127388648,0.2355542366077758,-0.7252752185082679,-0.820169291138617,-0.9278422073721396,0.2825618482927997,-0.7224407524522044,-0.41498513620591426,-0.47052258532304403,-0.3919903934705563,undefined,1491593758069
903d185fccf839df,-0.6016115799427199,-0.654412112977011,1.1505673123925744,1.2387069724989663,-1.211913451268157,-1.9762580631376137,1.8915555868103657,-1.1983672409207806,-0.23611537266342664,-0.47006246877438623,0.3376145542679784,-0.13146492299989646,-0.2908380681818182,-0.7900751376181049,-0.9097061119296334,0.07794675755573142,-0.816822578955614,-0.8424865839545898,-0.8946353418503586,0.09717996106096671,-0.7583579467387057,-0.4090762911592111,-0.4597912022098392,-0.37769139004796715,undefined,1491593759598
903d185fccf839df,-0.6029976277463454,-0.6591082329619821,1.255839477500027,1.2724902073411966,-1.1466712745750527,-1.9623455164716337,1.9351156943305907,-0.8835207288556035,-0.24093907536665976,-0.5279812577562335,0.3629582032434111,-0.20681259093526252,-0.44315396613190733,-0.8604385088407204,-0.9423377113144388,-0.049351527857310215,-0.9528791440621167,-0.8791923254589237,-0.932565053949264,-0.05538783771322203,-0.8148360968349554,-0.43714392516885003,-0.5132844788738566,-0.45139276230298664,undefined,1491593761122
903d185fccf839df,-0.5891374602587781,-0.5781000755372536,1.2016084314517195,1.1675431671886423,-1.151279266624228,-1.9230582387575277,1.9610166511657576,-0.6718461055489118,-0.17477545409478368,-0.5321324819246659,0.3505172884583441,-0.17640811280831065,-0.321301247771836,-0.8835843727005558,-0.945495608979063,0.15877100070076386,-0.8564589726878545,-0.8686163095453624,-0.9299762340839371,0.18806158895242156,-0.7567122670194725,-0.4479923151841399,-0.5283189589451196,-0.5034058061514307,undefined,1491593762555
903d185fccf839df,-0.5475570268068958,-0.7172227177759994,1.163965412366176,1.145925417097367,-1.180182076132541,-1.960267836116768,1.9513915600135956,-0.7788215858961043,-0.1543045591790446,-0.47377613494676685,0.2831032527508067,-0.32073556771047806,0.05296067290552586,-0.8752518378815899,-0.9676009073559003,0.30021371591796636,-0.8265319830359412,-0.8916365600341487,-0.9480559938113482,0.24200233923129663,-0.7562939392076727,-0.4540677139564944,-0.5725588747473543,-0.5507401404862424,undefined,1491593764057
903d185fccf839df,-0.5974536435643018,-0.7817944698673253,0.9846842472584894,0.9399146061657716,-1.2444985382076925,-1.9937762722877066,1.9611639201597217,-0.7544414376161798,-0.182188337963784,-0.49454868325579193,0.21599877652953373,-0.2960647816691388,0.5273158979500892,-0.8558093386589082,-1.0381273155273656,0.15472982387441417,-0.8407831955695709,-0.882263803568782,-0.9714953105479528,0.1628543300412533,-0.7760787005449862,-0.4587502924331444,-0.5977720387806417,-0.5335383150988573,undefined,1491593765575
903d185fccf839df,-0.6071556331355829,-0.8076231297846663,0.8672905120743888,0.8274654862456818,-1.2719202035314734,-2.010057653581531,1.9432812387990592,-0.9013189634388564,-0.2875477274417839,-0.661032684042077,0.23103821443936237,-0.2799173144005074,0.32277740641711233,-0.8335893256714422,-1.051811551011127,0.03349338849506167,-0.890178748273835,-0.8727707211347882,-1.0190316450693728,0.13007103937647616,-0.7952778442187811,-0.4583061732543406,-0.6375942682691726,-0.5015526214848522,undefined,1491593767074
903d185fccf839df,-0.5932955001534254,-0.7741632310497587,0.8392180363671813,0.7918174150078019,-1.2465556769892232,-1.9988190740459477,1.9337061165315108,-0.9547498531630259,-0.30622187667091005,-0.5719490652136144,0.2706885014308113,-0.29788166176739833,-0.1298184046345811,-0.8132209626256166,-1.040232583091193,-0.1867528966598338,-0.8931067495691634,-0.8551778038038499,-1.0234956100477863,0.13461358180626604,-0.790907034380766,-0.44574112262504556,-0.6181009614572954,-0.5097156941068435,undefined,1491593768558
903d185fccf839df,-0.5503290188979175,-0.727789031584173,0.9330057527301904,0.9262204861711236,-1.2327831311313588,-1.995972743960923,1.9474415910211123,-0.8412530654244486,-0.34647197860811374,-0.6877899652970937,0.2539974787184279,-0.19084515674786592,0.19222092245989306,-0.7641517858950341,-1.0191799221773863,-0.2655565231269698,-0.9178547786830178,-0.8423409269199463,-1.0042263931258655,-0.08176537802058982,-0.8238294054477957,-0.4129117188492662,-0.5704237487342894,-0.5192593124753341,undefined,1491593770079
903d185fccf839df,-0.5683473125436563,-0.7630099753134446,0.9572499094312839,0.9451884296963764,-1.1798426498167107,-1.9800151264784922,2.02355607070979,-0.29273467338144643,-0.37282920610568654,-0.5004114394926936,0.19944394218108982,-0.12348583979178014,-0.6433405748663101,-0.7743359706556405,-0.9623377715763838,-0.3302159883047996,-0.9874691852323616,-0.8199286396055395,-0.968647609909718,-0.24880771187946413,-0.8401814940108131,-0.41881493506408246,-0.553836924317803,-0.501715730092693,undefined,1491593771557
903d185fccf839df,-0.43113182349324825,-0.6596952187321111,0.5412663520414909,0.59170026945719,-1.1463009894876692,-2.010493221473377,1.948377797911605,-0.7911497581268204,-0.37011973258729797,-0.5087942001900044,0.14284451181952998,0.03503397979712854,-0.7826008244206774,-0.7678551246306388,-0.9276008604543482,-0.24332989512607803,-0.9585400356956896,-0.7985612866248092,-0.9662477036260912,-0.18629002320599297,-0.8156770328735545,-0.412396629065767,-0.5096994705500162,-0.5108777855216102,undefined,1491593773059
903d185fccf839df,-0.24679195131432397,-0.7178097693091112,0.36517536805991596,0.39604064589982735,-1.0189537772291126,-2.020383171531267,1.983043899642561,-0.5507082517154114,-0.3514115302153834,-0.3067839826920725,0.11137825436319539,0.09815412103847893,-0.7434338792335116,-0.7382284147458016,-0.9360219454341254,-0.1867528966598338,-0.926447821669285,-0.7788594979973329,-0.9213281775714924,-0.05737423720271766,-0.773229936264271,-0.3997561963554336,-0.43209922276608653,-0.4909532900201176,undefined,1491593774572
903d185fccf839df,-0.36876112155731017,-0.7172227543109898,0.31668654638383015,0.31804620304500736,-1.0972279320559533,-2.0319548319166594,1.9347212143833472,-0.9071141286864245,-0.30887836272836233,-0.27254225153640116,0.09790388201824592,0.06378793835202552,-0.8609347147950089,-0.7169342267291557,-0.9360219380718917,-0.11603159558067562,-0.926158646593958,-0.7816586593352801,-0.9261979575991044,0.021943155950757593,-0.7589067515817502,-0.40989808050734655,-0.4184215555833672,-0.5001834057153862,undefined,1491593776116
903d185fccf839df,-0.33411080635462126,-0.7324851223411517,0.41302579771905024,0.4302542027197962,-0.9588133091198315,-2.0275409236799096,1.9917959033774455,-0.5070772451007562,-0.28441065664667986,-0.171484821348301,0.12531531871530657,-0.02051772923511664,-0.847879066399287,-0.7771134520434886,-0.9402324511128451,-0.21706200550467192,-0.9648617910890581,-0.7856737452613267,-0.9556335411163288,0.07697720008348394,-0.76110723045776,-0.4181729499412282,-0.42170167448520285,-0.498071561451256,undefined,1491593777571
903d185fccf839df,-0.24956385714182142,-0.6984382524501112,0.46406717091514466,0.5061869524245376,-0.8415666474300293,-2.0135538417186614,1.997442091937654,-0.4293648041890246,-0.17792806840119565,0.04262570475516855,0.1366246415257009,0.015329374237573143,-0.865286597593583,-0.7123050630227309,-0.9402324511128451,-0.16654684293975608,-0.8878795733172015,-0.7591893751346734,-0.9195509870093445,0.13230381283535367,-0.726777812849838,-0.41090560732378806,-0.439484022930384,-0.461478518051866,undefined,1491593779093
903d185fccf839df,-0.18580727992930654,-0.7154617020096276,0.5540265682720398,0.6149953525671316,-0.8091872744732741,-1.999522504978341,1.9595755125825494,-0.6606458039058953,-0.18720703077773584,0.23044178192117654,0.07593201038665447,-0.04594516562848558,-0.8870460115864528,-0.6697167387925375,-0.9212850724873335,-0.13017579926706419,-0.8628597710772445,-0.7191588393402619,-0.877780026711756,0.24626770867376732,-0.6755423622137519,-0.39295363454102994,-0.42080010037005466,-0.4252012106021119,undefined,1491593780559
903d185fccf839df,-0.21075558830800953,-0.7547917214977568,0.95086954717906,1.0628152967195141,-0.8859185720796504,-1.9939742566730403,1.94243442741846,-0.7773286354474033,-0.20457242174604823,0.16056726123224793,0.10527539292422629,-0.17262690704535175,-0.35611631016042783,-0.6789750532546127,-0.9065482142650091,-0.07966066496686987,-0.8544786601222061,-0.7210903888228664,-0.8830836099741004,0.20863390789534442,-0.6825601065313525,-0.40266220376804535,-0.4452079170312279,-0.44131727513067487,undefined,1491593782058
903d185fccf839df,-0.32856668415093876,-0.7389423457764716,0.9999967608720974,1.0349518066106282,-0.9253642137825001,-2.0105351475274156,1.981537023829175,-0.5409319437533431,-0.24227400822651082,0.2104522220961125,0.10983037393885053,-0.16519012162376054,0.07472008689839574,-0.6799008976515948,-0.9065482142650091,-0.008939476946597838,-0.8502687767905005,-0.7050617078770873,-0.8670749068411896,0.2481463177527572,-0.6690758831795884,-0.3939285322517889,-0.4520534949348892,-0.43249625069029873,undefined,1491593783556
903d185fccf839df,-0.30223243148483947,-0.7806203960290939,0.8940867120215921,0.8971209764824476,-0.9038259621314124,-2.023304036451285,1.9346975477234576,-0.8667955652426825,-0.24137859065695264,0.3497069300126502,0.15002154413300892,-0.18355862761610128,-0.4779690285204991,-0.6697167193663757,-0.91707455944638,0.06986423431470282,-0.8159619349890166,-0.6935674153794542,-0.8516189516635462,0.21042012969415874,-0.6694188230032142,-0.3770249740212348,-0.4035635130461122,-0.40254067269764865,undefined,1491593785038
903d185fccf839df,-0.2648101069384239,-0.8011659794193272,0.9910646095107132,1.0593973190705122,-0.6340629920631018,-2.0039201083353446,1.90355276278178,-0.9908029559394764,-0.17388812419965965,0.26694461207618797,0.16265648115957734,-0.09078210814863828,-0.8783422459893049,-0.6400900612846366,-0.8918113339559833,0.03753462185085445,-0.8556958463881058,-0.6697618791549046,-0.8981267534690636,0.2570158299360232,-0.6644779152872122,-0.3851259189415435,-0.5349677690722149,-0.4239745819959802,undefined,1491593786591
903d185fccf839df,-0.14699887307385573,-0.8416700435176953,0.8755842714188214,0.9456262000608341,-0.614623030353879,-1.989127109940863,1.8936042063273502,-1.0430005641352917,-0.23666255749231066,0.13083088615248167,0.1391224155463062,-0.051656216603555793,-0.8957497771836007,-0.6428675556232593,-0.8623376395980359,-0.11199039048960438,-0.8565908955347623,-0.6594138483389362,-0.892921124910584,0.2909848003347474,-0.6473265619221906,-0.3771702755559739,-0.5802203126643712,-0.43886994241612,undefined,1491593788038
903d185fccf839df,-0.24401987295977787,-0.793534769829753,0.5304202953139989,0.6390799430919509,-0.8011438533636224,-1.998322946385652,1.9304793482053781,-0.8506292603426834,-0.28614276308134584,-0.024236911898167304,0.09755983373604618,-0.025899209783963165,-0.9305648395721926,-0.731747594622349,-0.8728639626927055,0.07592625393672119,-0.8640265045355795,-0.693073445933181,-0.8739527693270951,0.25054847701940275,-0.6648175056490955,-0.4004670331201905,-0.5812513537913482,-0.46476404869559,undefined,1491593789972
903d185fccf839df,-0.1705610646381138,-0.7624229603153233,0.6484521683781016,0.7666956185790503,-0.7301211175795873,-2.003000058365442,1.9675070249694282,-0.5867561891473477,-0.31505239891584724,-0.04473056455405435,0.07752435652217946,0.05382542304367812,-0.8957497771836007,-0.7437834422753704,-0.9065482142650091,-0.023083567574100256,-0.9142625216682041,-0.7664532629943218,-0.8808376307893171,0.13778566154127644,-0.7193742240233273,-0.39752151542495795,-0.6287950347727688,-0.5297513652172093,undefined,1491593791082
903d185fccf839df,-0.24540581724717414,-0.7465735115240573,0.6682306306039271,0.7666956185790503,-0.6839589079065851,-1.9872148041611,1.9784917239885345,-0.5027610021615758,-0.25998150314669466,0.10029772547537352,0.08216922363950051,0.03551811486592867,-0.6650999888591801,-0.770632612493874,-0.921285057762866,0.049658208859346624,-0.9376243357224927,-0.7736728184377387,-0.8605888608462606,0.14999662950714635,-0.7170535091112991,-0.3895764502296101,-0.6048815694988848,-0.5388066722562311,undefined,1491593792567
903d185fccf839df,-0.18026315772562404,-0.7542047503416238,0.6765251523592081,0.7429997038707691,-0.6624000846693702,-2.0031910562295647,1.9584578560619568,-0.6430004676356769,-0.22658997038530046,0.13897230302221308,0.12297916133920532,0.0066922134729760895,-0.7434338792335116,-0.759522615713222,-0.9381271761867839,-0.08774304688429081,-0.96111556902009,-0.7792014780577086,-0.848106550493068,0.16019039857517625,-0.7171944953444418,-0.40058958030753483,-0.5840649241447209,-0.5307731926735308,undefined,1491593794077
903d185fccf839df,-0.30639050588489647,-0.757726825716356,0.8711180686696547,0.918906563123491,-0.7182925635407117,-1.9876200915439974,1.9171725311565901,-0.9236519677339933,-0.21103822611017165,0.11280833732122429,0.12521227853445985,0.054731848662470085,-0.6955631684491979,-0.7011950597666915,-0.9086534891910704,-0.06147517139524546,-0.96146241480652,-0.7210397226601408,-0.825674775317923,0.17409519051869624,-0.6769292897657702,-0.3909767082906665,-0.5729920021769542,-0.48960636797958934,undefined,1491593795537
903d185fccf839df,-0.16363110166326422,-0.7747502460478801,1.0421054744329088,1.0438832538766074,-0.5551716950738645,-1.9917451744112937,1.8592142334363162,-1.2622160206481488,-0.25772374352148797,0.46660577886500304,0.09506337835636318,-0.09148433959152909,-0.7869527072192514,-0.6873075556966423,-0.9444429862404999,-0.04733091117941383,-0.9179778396052239,-0.6973735120269938,-0.7975615890808586,0.278296469978667,-0.6414720676694637,-0.39272933904769375,-0.5041791613984936,-0.43090617608786996,undefined,1491593797076
903d185fccf839df,-0.09987435192370069,-0.7765113348842327,1.1116485258209257,1.0892225110767828,-0.4161707915776363,-1.961847059568949,1.89707029567261,-0.9533024277503164,-0.25847166027394836,0.6089258800972985,0.10942685019435254,0.05043254243798411,-0.8565828319964349,-0.6743458636466387,-0.8265481351863725,0.03753462185085445,-0.9111009426275682,-0.6589515432179467,-0.7795308093785359,0.28576471499698053,-0.6179578769913998,-0.3732354183679343,-0.48719446763735313,-0.3946790299123338,undefined,1491593798558
903d185fccf839df,-0.10403232280752847,-0.7495086157426566,0.9151411958704725,0.9095227101170681,-0.4336461894076198,-1.9673673564310101,1.8789141126566848,-1.0767071791429645,-0.22875377361342059,0.5748167592650179,0.06965308822196185,-0.018771241910631713,-0.9305648395721926,-0.603056667453203,-0.7907585939635401,0.1426062651306435,-0.8610691926108034,-0.6224294571356238,-0.773653487336802,0.34768186436535786,-0.5886044521311045,-0.3572536379288186,-0.4574067591822147,-0.40355716122943597,undefined,1491593800103
903d185fccf839df,-0.1081904317129952,-0.7090045078023,0.628674214426175,0.6412609047364277,-0.5288814578246799,-1.9610271673171482,1.8886969951592307,-1.033615342952269,-0.19702575450535043,0.3009830967646099,0.0675995077506034,-0.05562239542125985,-0.8739903631907309,-0.5910208780786669,-0.7939164916281644,0.36891425899562047,-0.840621080431801,-0.5988519076419836,-0.7817977749158694,0.3839606063870695,-0.5707977441446428,-0.36337216702684516,-0.44674037796787075,-0.4051789057729074,undefined,1491593801569
903d185fccf839df,-0.06383800617009112,-0.7395293315466006,0.8455978903455063,0.8689243708230889,-0.5801453668070901,-1.9832900356789867,1.9472338307861143,-0.6847125916270356,-0.19629582821193495,0.19583700982383745,0.0694669302912928,0.011074458608939448,-0.7651932932263815,-0.6039825183255723,-0.8286533806634986,0.2193893879787693,-0.8408946543915901,-0.5994218720967956,-0.7837988624962777,0.4769518232163139,-0.5598625775359267,-0.36017800106596926,-0.49628101899463545,-0.4942290628328861,undefined,1491593803080
903d185fccf839df,-0.14145475087017326,-0.7272020019720553,0.7594663037208265,0.8138051821688398,-0.7001588811242726,-1.9919268552048355,1.9915118793657627,-0.4316304435529326,-0.12979153534587037,0.19637881215716965,0.1428617653170265,0.004146273095061074,-0.7913045900178254,-0.5512099963839979,-0.8686534275650506,0.2820281092874558,-0.8044397775359033,-0.6285470804843712,-0.8267382913602789,0.3145444211809878,-0.613605375026432,-0.360576299580891,-0.4199750288208156,-0.4778640541900747,undefined,1491593804564
903d185fccf839df,-0.29807446060101167,-0.7418773915390862,0.5444562790306533,0.585612760049173,-0.6560743773557652,-2.0028975718638664,1.993902375428065,-0.41160036643557596,-0.09538793166792202,0.07179808633265784,0.19552297259730128,-0.004134469770219882,-0.8000083556149733,-0.5493583334915828,-0.8507586937648034,0.1648329072638961,-0.8261028226017734,-0.634075740785351,-0.8173205826295713,0.2694731716424157,-0.6186501194655308,-0.37541296671697905,-0.46248922577698576,-0.5173911112340025,undefined,1491593806071
903d185fccf839df,-0.2772842611277754,-0.7917737248353888,0.5610443059934175,0.6250066551037023,-0.623808146700338,-1.9951318885711111,1.998667586636844,-0.3546740474706887,-0.15275375693923218,0.02485745298398562,0.1813086639666882,-0.012052227444777155,-0.8609347147950089,-0.5928725150695329,-0.8612850094972391,0.22545123801245848,-0.829970254216961,-0.6547084712087807,-0.8000594510898997,0.2783426728673616,-0.6199200692371497,-0.3726293844174806,-0.43594632549427725,-0.48386798028421835,undefined,1491593807588
903d185fccf839df,-0.034731657896740854,-0.7682931249105334,0.8315619066288519,0.908960002327185,-0.47999352633533154,-1.988973379772848,2.0355900586920868,-0.06397590089667067,-0.17735059575016135,0.33891653369742863,0.18817304201824106,-0.03136914076957649,-0.8261196524064172,-0.6178700223956215,-0.8907587259418879,0.12846192012064728,-0.8896815539166791,-0.663473266238281,-0.7916003057245649,0.2747240340949421,-0.6246037230703454,-0.36120983827187186,-0.4356917313212631,-0.475392573385725,undefined,1491593809070
903d185fccf839df,0.0026907356604941924,-0.8035140394118128,0.9310913390901839,1.0560552807458798,-0.5089374801481932,-1.9889990020208135,1.9904205062145017,-0.3648042879298186,-0.221681476646065,0.5873566346381637,0.10855721988139175,-0.010136835365953164,-0.8609347147950089,-0.6243508489944615,-0.8581270971081473,0.12846197665009035,-0.8775076925713023,-0.6442844466023401,-0.7725969679462793,0.2511336151596636,-0.6139195418575615,-0.3548640817984705,-0.33191037091605496,-0.40656273054353326,undefined,1491593810555
903d185fccf839df,0.030411105141038442,-0.7641840199236836,0.7282039010244564,0.8642445780875534,-0.48258552637816887,-1.9940371470946034,1.9709310217464426,-0.5026189760264258,-0.24540026859558497,0.6899889307402609,0.1044749043620438,-0.05115445831641366,-0.9001016599821747,-0.6419417177016644,-0.8507586643158682,-0.015001242186122392,-0.9212575259477758,-0.6170844529155184,-0.7951616832682457,0.2832855681879873,-0.6030954329781941,-0.3756199754675592,-0.3708268900782016,-0.41677504513561414,undefined,1491593812074
903d185fccf839df,-0.2107554502863706,-0.764183961467699,0.6108096575664571,0.6328007242461388,-0.6141601659290491,-1.9956629560260841,1.9317758386941513,-0.7956997289526399,-0.26266916013576047,0.4897561405183442,0.03959890311004008,-0.013274184535642636,-0.8913978943850268,-0.6836042040102631,-0.9065482216272429,-0.049351527857310215,-0.8813118945251412,-0.6035636179649665,-0.8392625825359121,0.2973135515991473,-0.6143504984471782,-0.36736426093014407,-0.3169134141447903,-0.40673713050852855,undefined,1491593813608
903d185fccf839df,-0.35628708813689275,-0.7031343724350823,0.6644028198717119,0.7351365319428893,-0.731242255634019,-1.96181678032032,1.934729111650152,-0.7760243711914743,-0.3052500325928209,0.63673572296679,0.08174833040037982,-0.038523493824011414,-0.9131573083778967,-0.6419417177016644,-0.9054955768019785,-0.07157822652000585,-0.9355243965709411,-0.5736531249489609,-0.8855115026264943,0.18431976005859316,-0.6363796623805623,-0.35915316969590694,-0.323375794246615,-0.4011886901957582,undefined,1491593815059
903d185fccf839df,-0.4186576520511919,-0.7542047503416238,0.8136970956321846,0.8503690897525069,-0.8732568768307241,-1.9583974560739252,1.9396547277761906,-0.7777775218973555,-0.30393424725058,0.4560560647203232,0.07501473422864492,0.020271047065997,-0.9523242535650625,-0.6937883952462568,-0.9212850504006321,-0.07157822652000585,-0.9525809022769735,-0.6086489712174656,-0.9147861598483447,0.1259442554583788,-0.6682911115834002,-0.3935970872520091,-0.3946455017192723,-0.4632196197414876,undefined,1491593816580
903d185fccf839df,-0.3244087477725207,-0.6250613192289531,0.7288415306305597,0.7544984340569233,-0.8403940783197357,-1.9478855994243847,1.952493443998537,-0.6682823613759978,-0.2722898320409886,0.6049522036406016,0.09632248377328295,-0.04383326060170121,-0.8565828319964349,-0.6336091893580859,-0.9265482450780189,-0.1079491571338116,-0.9209265951773056,-0.5920059958699961,-0.9203276328025585,0.1202776253397889,-0.6660400562200696,-0.37177545240173454,-0.3487525022730851,-0.47325955040940626,undefined,1491593818075
903d185fccf839df,-0.2883722985026819,-0.6127339896544078,0.7052352576725189,0.7445903332605042,-0.7245256992368808,-1.9582297510749407,1.9223506115577047,-0.8479465911647804,-0.25588201482536477,0.710914619175217,0.04944198130938478,0.02467555245525631,-0.6999150512477719,-0.6761975653913774,-0.9202324055753677,-0.03722788431937497,-0.9335683737688784,-0.6317008861256592,-0.9090977514984181,0.1622999817376347,-0.6712563852582922,-0.36574410238490535,-0.4084692107025747,-0.48427218180353404,undefined,1491593819572
903d185fccf839df,-0.25926601924015114,-0.6262353346111997,0.6159134899217272,0.6672334004321251,-0.5589259758792667,-1.9230512513719422,1.9194709751937296,-0.7828771570045308,-0.33433889306192865,1.1213413372941634,-0.011781199886714902,0.07181706429696802,-0.6650999888591801,-0.6863817566273711,-0.9054955768019785,-0.025104240781439715,-0.9485999075604695,-0.6335184415147372,-0.8940406138005809,0.17760603862482605,-0.659597062562077,-0.37892794480806125,-0.40725228705992134,-0.48055253902562217,undefined,1491593821084
903d185fccf839df,0.04011312921772924,-0.6438458137828337,0.6222935980370017,0.6647126307327286,-0.38803940338165477,-1.9155184919579353,1.9173355632585094,-0.7474579546691875,-0.3483418454636666,1.4071352131857129,-0.03036444359369996,0.13178502399079137,-0.1863928810160428,-0.6863817177750474,-0.8728639332437703,-0.01904236248302902,-0.9666624276244042,-0.6566970145656386,-0.868215384714073,0.21356141069394008,-0.654939437204092,-0.38070274987282937,-0.3644674428254796,-0.4803482008822235,undefined,1491593822562
903d185fccf839df,0.19396070883590696,-0.6784796986719955,0.613999838692569,0.698939207652113,-0.373135425198087,-1.9288836666271543,1.9702840817142115,-0.4116164645874942,-0.33691764441134925,1.357725650927252,-0.012000415392180797,0.0020639763661848207,-0.49537655971479505,-0.6641617242137432,-0.9023376791373543,-0.02308353930937872,-0.955170219366094,-0.6424478923600832,-0.8611556026434958,0.23114643462624776,-0.645191132628341,-0.3676958236538668,-0.31519749174554496,-0.4305932786338816,undefined,1491593824071
903d185fccf839df,0.4822518889297002,-0.6485419337678048,0.7664842955791537,0.8402755219124907,-0.4063170819676979,-1.9275257201826228,1.9305818995414816,-0.6705105991955791,-0.3020813105161702,1.2629277839244466,-0.014880440915956255,0.044812756160773966,-0.5693585672905526,-0.6697167258417629,-0.9170745520841462,0.025411034842362273,-0.9871669882447345,-0.6703825072754057,-0.8502615692218144,0.20342923349604733,-0.6569679660704251,-0.39946582664365954,-0.3699829047923112,-0.44485835203018176,undefined,1491593825594
903d185fccf839df,0.275735665957685,-0.6896330274782904,0.8417700796132911,0.8537745924393416,-0.42770104396811576,-1.9581226062802175,1.9922508536152863,-0.28141327011126305,-0.32778691128298,0.8080188825001441,0.003170297341550651,-0.044921410175666504,-0.5824142156862745,-0.6808267290978023,-0.9054955841642123,-0.06753696489949156,-0.9663184243734457,-0.6344240533630808,-0.8309153871294509,0.2422333166803425,-0.628286528700927,-0.40296767174884085,-0.3382678772856851,-0.4332668668514442,undefined,1491593827058
903d185fccf839df,0.2105929029199057,-0.744225466145568,0.8054030821508025,0.8314483909036986,-0.5115500474580325,-1.9775694242668407,1.9825389784250629,-0.391136891667446,-0.3334927067518184,0.5229785847780117,0.0227974944866594,0.06017945594229559,-0.7086188168449198,-0.6900850694614267,-0.914969277158085,-0.11401097890277923,-1.0332605224380065,-0.6241013549087085,-0.8493939642877316,0.13199584383219176,-0.6536442827827266,-0.39614707504902297,-0.33517087338665613,-0.4228323376736389,undefined,1491593828622
903d185fccf839df,0.15931037638051315,-0.7729892302815082,0.6273979386661707,0.6674288701621665,-0.5040517736868247,-2.002857974507226,2.016097935516629,-0.20255555306123638,-0.2814954435694651,0.3373851737498231,0.08268201137784927,0.0067287676086113385,-0.8130640040106952,-0.6937884081970314,-0.9044429393389479,-0.09986671868694759,-1.0357987970729807,-0.6431318510302281,-0.8626949014462078,0.10072160215391934,-0.6740253306764914,-0.4002425141331684,-0.42430812982074306,-0.42363002720893617,undefined,1491593830065
903d185fccf839df,0.5155160355598296,-0.8240595935740537,0.5508366412828772,0.7225290868629859,-0.13022840304938213,-2.0284609721213016,2.0411889202176456,0.050780316650267186,-0.2811075520640876,0.27623311556211255,0.108546408523183,-0.016601586752818157,-0.8304715352049912,-0.7410059349859732,-0.8949692610695428,-0.11199039048960438,-1.0159110247027199,-0.6491291490581382,-0.8712869847072855,0.1257286776933118,-0.676009372549912,-0.39232135907446186,-0.46429279931535394,-0.43877908176272123,undefined,1491593831590
903d185fccf839df,0.5875890031103266,-0.8035140101838204,0.7033213523064114,0.7610776112131138,-0.11330843679250023,-2.024296292537491,1.9632835469890297,-0.4707069686494278,-0.28830724088513715,0.6661448000649348,0.1016542399078493,0.00540028005492373,-0.8870460115864528,-0.7150825767875153,-0.891811378129386,-0.11603156731595408,-0.9966557931831166,-0.660579110346533,-0.8676346497722154,0.1946213219334198,-0.6662346487541688,-0.39830644788956804,-0.48282806503478637,-0.4357339558055442,undefined,1491593833061
903d185fccf839df,0.5875890031103266,-0.7900126506130323,0.7390499577519483,0.7567124646581688,-0.1169290023781007,-1.994235131457286,2.003766782361745,-0.1773400838649532,-0.37857268463862076,0.7007060511062917,0.08488656182520944,-0.0061035211757209315,-0.8391753008021391,-0.7373025832995941,-0.89917978147273,-0.07966066496686987,-1.0304505603417693,-0.6779060446132974,-0.872553407586071,0.12683736654625838,-0.6897824305701794,-0.3956018116354722,-0.5017861240963641,-0.43805862467065904,undefined,1491593834575
903d185fccf839df,0.08862366366610004,-0.7794463952608435,0.8794125904249356,0.8995983478724752,-0.4717855513015517,-1.9828777608760741,1.959365131448023,-0.5722352496022733,-0.3157891577998489,0.9124895997125115,0.09442073730201898,0.023062814963612052,-0.843527183600713,-0.7511901003204179,-0.8991797888349639,0.0031842231207804815,-1.006884365498366,-0.7031174935812413,-0.8432577614914412,0.19816296674196993,-0.6807772751112812,-0.3827960367098428,-0.49281548561290245,-0.4130432485031351,undefined,1491593836106
903d185fccf839df,0.09693974345539455,-0.7929477694456277,0.9068466741151916,1.0348292653785258,-0.539362578567697,-1.9580317669577987,1.9545131351536609,-0.6029433258617163,-0.21250837389124197,1.0095117738453838,0.16424931266864234,-0.024749413262037126,-0.9088054255793226,-0.6965658960602666,-0.9065482289894767,0.05774070383565371,-0.9714274355060627,-0.674923227128036,-0.8099739324569408,0.21992097109993458,-0.6493352008719432,-0.38801356317722496,-0.4937771288949686,-0.4197560487488106,undefined,1491593837565
903d185fccf839df,-0.02780155690025236,-0.7571397814902423,0.9859602688815442,1.0708990500973878,-0.583940793069341,-1.996147436707008,1.945687504254447,-0.6986583290782639,-0.1799327193025699,0.8074736265384367,0.1640442348888657,-0.05151462755674818,-0.7129706996434938,-0.6437933546925304,-0.9328640183205661,0.07390546767049558,-1.002804346293546,-0.6625296558253966,-0.7974356479654073,0.21482408265511868,-0.6348424864044748,-0.4097604624527252,-0.4856437005913344,-0.4553731499956189,undefined,1491593839068
903d185fccf839df,-0.16501704595066052,-0.7941217848278743,0.9081229498751959,0.9766416386309936,-0.6171018779047343,-2.0054760395385034,1.9804903630981656,-0.49578393762266687,-0.1687276983845907,0.536117217077734,0.19162832496637872,-0.09062977349741633,-0.8565828319964349,-0.6234250240236412,-0.9391798578232173,0.14260612380703583,-0.9850005080650621,-0.6403896849340909,-0.8124717944353965,0.17563503661149046,-0.6375239414280933,-0.4014590686333643,-0.4480489459259684,-0.45545166163459155,undefined,1491593840613
903d185fccf839df,-0.1927372774095658,-0.7976438455886103,0.8806886120479904,0.89115376226736,-0.6935966133075252,-2.0202271115206027,1.910406038988216,-0.9939338722029196,-0.207496720824209,0.2362822714069254,0.16297261071479,-0.03900011580482123,-0.7869527072192514,-0.6067600320903567,-0.9118113868556945,0.2678839621305103,-0.9444451737691524,-0.615349226148593,-0.8091203218236052,0.2530276248649938,-0.6086725804908266,-0.39304060158885323,-0.4432534470372291,-0.4504212923266726,undefined,1491593842132
903d185fccf839df,-0.142840764168389,-0.7929477694456277,0.8947245957646448,0.9668345941018388,-0.7017223116833204,-1.9917684675242373,1.8998079174119393,-1.040090634660525,-0.13383762431980537,0.577303859486562,0.18743122358509895,0.009183624471872048,-0.9740836675579323,-0.5400999996033458,-0.9212850651250997,0.2476777670868249,-0.9277960412193902,-0.5932662520493638,-0.8113662981211356,0.29023026887474973,-0.5920025801447948,-0.3867659593485146,-0.42175486078209823,-0.45920389005212414,undefined,1491593843556
903d185fccf839df,-0.009783349518037844,-0.7735762160516373,0.880688357911041,1.0160993315904117,-0.5850105042169915,-1.9839538697449137,1.929340641734337,-0.8017573180463783,-0.17026804785707586,0.6177665197374257,0.18951919293883773,-0.0025001075755222806,-0.9262129567736186,-0.5262124566809728,-0.9560219394359664,0.28808995932114495,-0.8823219153198549,-0.577414894251855,-0.8233588314866296,0.2831623825360649,-0.592884003321175,-0.37151301728427255,-0.4074266846945249,-0.4508654300882803,undefined,1491593845094
903d185fccf839df,-0.02087152491458333,-0.7377683011662327,1.0153087662118068,1.1055482763075961,-0.4851466724727093,-1.9665171850846093,2.016600225359381,-0.17517738217890802,-0.18842816179626523,0.48479965413884135,0.222920176215,0.09411905949590896,-0.8783422459893049,-0.5725041714498691,-0.9854956558806152,0.29617239776800897,-0.834181875105341,-0.6153492266468928,-0.8551663350777575,0.23967717382082201,-0.6253154985779344,-0.3928111817407765,-0.38508236833062587,-0.4780401909519234,undefined,1491593848903
903d185fccf839df,-0.10680434940395997,-0.7542047211136315,0.9936163986198735,0.9602113237094427,-0.5216300381417077,-1.97395677492809,2.02244102566103,-0.15471948753576198,-0.21337735376732794,0.3432443428064526,0.2193204542374771,0.056339221958093225,-0.6868594028520499,-0.5919466641971636,-1.0076009837063875,0.3163784232233652,-0.8371262640581871,-0.6287117387529598,-0.8697406921277591,0.2755247539581893,-0.6310757706959981,-0.38797846579485834,-0.3831109956904844,-0.46830950649735503,undefined,1491593849570
903d185fccf839df,0.0040768524749391485,-0.7794463806468473,1.0567795960295654,1.1245280548354097,-0.42712506314270426,-1.9775321569956716,2.011664076401704,-0.20258602495843583,-0.2890536394753547,0.714381998914067,0.17750564291087143,-0.09696519340912445,-0.4866727941176471,-0.6447192185156743,-0.9854957000540179,0.13654447162639743,-0.942626838088979,-0.652263955818564,-0.8825238657279066,0.25809371605543474,-0.644537301902922,-0.3929245195568621,-0.4464175909212887,-0.47361065743162073,undefined,1491593851100
903d185fccf839df,-0.07354006475219166,-0.7782723360366084,0.7703123604483183,0.8241960973442627,-0.6627086696801967,-1.9926000052201036,1.9986701991561977,-0.3502328532479428,-0.23987072780589724,0.7813079262309496,0.15876821159214155,-0.12001694088492366,-0.1820409982174688,-0.666939225027753,-0.9897062130949713,0.17291528918131702,-0.9134940226673749,-0.6794956127676295,-0.9143873426193381,0.20218195797443095,-0.6782391360008047,-0.4169917015364431,-0.4451552310292576,-0.4635044890621996,undefined,1491593852560
903d185fccf839df,-0.40479758807985383,-0.7864905752383001,0.3428448625879807,0.344682728188342,-0.8617780435730009,-2.0180795527438318,1.9970449973760134,-0.4412254316352578,-0.24621883032504205,0.32856080933736165,0.08957531311230298,-0.270670770979406,0.11388703208556152,-0.7261925800435547,-1.0065483315188894,0.0961322228626343,-0.8925399048569055,-0.7304568106447993,-0.9435920311451839,0.073666530341151,-0.7304441265475551,-0.43313333534062515,-0.45705330679827844,-0.4626461214640665,undefined,1491593854064
903d185fccf839df,-0.5641892553963043,-0.785903574854175,0.3288088788713263,0.31132645445605556,-1.0753399632106473,-2.0130740187170346,1.956567021610225,-0.7703244804093111,-0.2210572039517454,-0.21964244667748,0.1304898783394707,-0.269508102915795,-0.042780748663101595,-0.7437834357999831,-1.003390441216499,0.23555422247541502,-0.8523031255179979,-0.7881372622730553,-0.9660937747104806,0.1919265888377175,-0.7306450134261874,-0.4568642791712697,-0.5136226749640805,-0.4623780675721797,undefined,1491593855563
903d185fccf839df,-0.587751481465972,-0.8557583888586123,0.32306640036215517,0.28224167095020525,-1.1358404333749672,-2.0090910195919793,1.9706627838881947,-0.6938997176419954,-0.23237630712097393,-0.4084895389498135,0.16901654765399454,-0.29655822875022575,0.26620293003565065,-0.7474867486340386,-0.9791798900003018,0.3466877016565325,-0.8343407656960694,-0.7966107406365723,-0.9699070360999683,0.30182529550910536,-0.7091531647449028,-0.43939256554296574,-0.5739130939929844,-0.48315464200686875,undefined,1491593857067
903d185fccf839df,-0.5184508165551844,-0.848714238109148,0.6395200170167173,0.6624458924452631,-1.0138417817079277,-1.9936644681103068,1.955659731558854,-0.7472011324139625,-0.20749653139705945,-0.35907559651093757,0.18747645809813346,-0.2972294432643813,0.47944518716577544,-0.7900751311427175,-0.9528640859447448,0.2941518658842772,-0.7657508345916684,-0.8228164612524937,-0.9725238418202291,0.25921779646112497,-0.7277908670973764,-0.4606660558176158,-0.5498346058846825,-0.4874163665467168,undefined,1491593858605
903d185fccf839df,-0.47132626089961965,-0.7947087998259957,0.8908967850324296,0.9442438764730698,-1.0060657924902578,-1.9984906511245997,2.003777299480556,-0.4274718755843611,-0.22189452884613675,-0.2558560212442498,0.23280944428300918,-0.18534478021141257,-0.10805899064171122,-0.787297636804095,-0.9697061822819615,0.21736871477142986,-0.842006176303221,-0.8373189018363246,-0.9881617141173684,0.23359478268654968,-0.7443655231037752,-0.46837906043799815,-0.5363377377275728,-0.5203162534316362,undefined,1491593860066
903d185fccf839df,-0.6487361701036943,-0.7412904057689571,1.0204131068409756,1.0372543895781863,-1.0083183626603385,-1.995823672431715,1.9804956352753547,-0.582319821119855,-0.25476372233360634,-0.2941752226171295,0.2784121289084109,-0.18816101327109958,-0.8391753008021391,-0.7974817956631524,-0.9602324892880888,0.13452377015433645,-0.8716128685896783,-0.8525179667727987,-0.9780793099132273,0.2812683712287199,-0.7407205180016571,-0.4627348753365323,-0.5649289679587601,-0.5112122461843764,undefined,1491593861568
903d185fccf839df,-0.7845655078342478,-0.7054824324275678,1.3406947883647025,1.331667104681696,-1.0461491571760364,-2.009319284471312,1.9565749199245517,-0.7730035814861027,-0.2817236501862199,-0.11822960680262629,0.27895599719817493,-0.23376155268304047,-0.20380041221033868,-0.7447092478200288,-0.9739167174096164,0.1264413882369155,-0.8679471455718729,-0.8227974619674548,-0.9710405177492129,0.3579218329968919,-0.7096515325578885,-0.46515214600868837,-0.5972363652365752,-0.5330908436863923,undefined,1491593863084
903d185fccf839df,-0.749915175378854,-0.7260279573618164,1.1333408934128588,1.1120087840295287,-1.0192417772043092,-2.0094497209052835,1.9536426885388256,-0.7911193051471805,-0.21159392923065592,-0.030372275099391104,0.3183200549868379,-0.2295827614555471,0.6709280303030304,-0.7521159188158508,-0.9486535066436873,-0.19887654019776904,-1.0086543716083094,-0.8168634938413986,-0.9468665356870454,0.006113550868332194,-0.7817800227747658,-0.47326447281585526,-0.5534977324796113,-0.49974817210936834,undefined,1491593864577
903d185fccf839df,-0.6002255666445041,-0.7395293461605968,1.0835763042506674,1.029643217305506,-1.078405105961422,-1.9849414656203113,1.9401097094396857,-0.8655979566901271,-0.16955252788880457,0.032792393103560497,0.30813609128049924,-0.18877722272086447,-0.5519510360962567,-0.7687809301752973,-1.008653591720483,0.08602919600259544,-0.9149146873965833,-0.8113981632650993,-0.9844114230898604,0.2175034118935263,-0.7499352774638556,-0.46882301406343707,-0.5718390323673692,-0.48858508573612924,undefined,1491593866074
903d185fccf839df,-0.5544870932979745,-0.7917737102213926,0.455134765416811,0.47406440512837333,-1.1394610002809116,-1.9813218286853178,1.9068268759504325,-1.0910733620856417,-0.1655510167301743,-0.27205968456207613,0.25822149419427015,-0.11601727812591854,-0.9827874331550802,-0.8067401489775512,-1.0339167803997107,0.2981930709753484,-0.8537847797148228,-0.8277371584898272,-0.9694312510946504,0.406965884637711,-0.706153428254413,-0.4844097938903491,-0.6222569682225897,-0.5178767360003455,undefined,1491593867570
903d185fccf839df,-0.5170646997407394,-0.7430514507633214,0.612085679189512,0.6524569418794339,-1.155383255231402,-1.9635776849062654,1.9237970055577533,-0.9561772247821746,-0.17831849174616546,-0.4129893137389264,0.29182645620195075,-0.0969902391967803,-0.5301916221033868,-0.8011851473495315,-1.02128518237898,0.3972027794272837,-0.7750606414245057,-0.8067687814258525,-0.9575296763133729,0.44247469819444607,-0.6878444778894839,-0.47773431694200513,-0.5680218235693311,-0.5363765198757668,undefined,1491593869058
903d185fccf839df,-0.6598242764894203,-0.659695204118115,0.6892851144528075,0.6831416058002469,-1.1886883430961859,-1.9384032670319298,1.9043338107441565,-1.0697849514430882,-0.20591491384002056,-0.44368195997722837,0.39159531339661696,-0.19855927121216219,-0.2560230057932264,-0.8530318248941238,-1.0054957014180925,0.27798690419638455,-0.8333645528371723,-0.8199539704888459,-0.9620146316632456,0.2987148115617643,-0.7217235719065475,-0.4655171806144954,-0.5765615186153935,-0.5332135039258046,undefined,1491593870577
903d185fccf839df,-0.6168577607285028,-0.5053101134722283,0.8379415064702275,0.9085616763280607,-1.156051828427655,-1.9328852983612361,1.931189402473215,-0.8655455150214381,-0.13359142269722274,-0.3769504295990926,0.3854928834271079,-0.19331087113093454,0.0660163213012478,-0.8215534844938079,-1.0139167643111684,0.221409863333058,-0.8204471363162641,-0.8142923191623841,-0.9771697243279815,0.27484722277588414,-0.7315585104449343,-0.45853930827756184,-0.5773689483300357,-0.5310758071520641,undefined,1491593872059
903d185fccf839df,-0.7513011886770697,-0.5064841726964635,0.5521124087689827,0.6290458935447519,-1.2347785603338577,-1.939253437510332,1.9408907553070183,-0.8160021103959899,-0.1499474401233477,-0.3572962807220088,0.28842299406330824,-0.1538129844878035,-0.24296735739750447,-0.8002592964771622,-1.0286536004467914,-0.24535049767161365,-0.9192817813290828,-0.8019114143118394,-0.9867623518563942,0.034400494130024994,-0.775257380074277,-0.4596668380948539,-0.5889835429361524,-0.49503669397508804,undefined,1491593873591
903d185fccf839df,-0.47964230618350445,-0.6103859223549242,0.4544968816737583,0.47143607423131056,-1.047980021931666,-1.987082036065578,1.917614337090961,-0.9637503357577525,-0.20053117880402868,-0.567496639266247,0.13875011767879403,-0.1395771869538587,-0.7521376448306596,-0.783594291593103,-0.9918114659343312,-0.2534329219861169,-0.9829058766804083,-0.7877382869321128,-0.9443127005122761,-0.16482459248861298,-0.8040468059661342,-0.4215128547137671,-0.5473450238444165,-0.48441997416090754,undefined,1491593875121
903d185fccf839df,-0.22322963898113185,-0.6279963796055639,0.4647050546581974,0.4518346845367179,-0.7819096067394672,-1.9870960120608259,1.9012595762565245,-1.0342248386528794,-0.2690653959108974,-0.377453061319612,0.1381157434422236,-0.07414754145005337,-0.7826008244206774,-0.7484125865556335,-0.9476008986295918,-0.2736390039709162,-0.9412115057489767,-0.7526347806044824,-0.9011353806412375,-0.13002410622426164,-0.7702691967668629,-0.4039603475090639,-0.5829758204201362,-0.4485065973630497,undefined,1491593876563
903d185fccf839df,-0.2620380803419924,-0.6749576232972634,0.6344161846614472,0.660519400166814,-0.7467325158260705,-2.00457695368243,1.9575847655021135,-0.6655301488654228,-0.28646432601664445,-0.4782295698685282,0.13884213101672396,0.00823979545351375,-0.8043602384135473,-0.7548934455314098,-0.89917978147273,-0.15644375955027412,-0.8782649867110868,-0.7682834837336981,-0.8675366952702135,-0.005912636236825473,-0.7409689483299864,-0.4206674826077987,-0.6064143024579582,-0.4077286586575793,undefined,1491593878061
903d185fccf839df,-0.34381296845295095,-0.6743706229131381,0.705873395552521,0.7492208283281068,-0.8553186135496434,-2.005198860249165,1.9868229434564084,-0.5101270087492861,-0.2600018183146785,-0.3087581532658222,0.22026450535814257,0.02773432263567764,-0.9175091911764707,-0.6937884081970314,-0.8054954595480982,-0.015001213921400854,-0.8269251721491446,-0.7529134296778177,-0.7809791477496792,0.10549511542276119,-0.6817750563274513,-0.4191858852332175,-0.5850733037414099,-0.39717692644547026,undefined,1491593879570
903d185fccf839df,-0.34242688614391575,-0.6837628409620861,0.8602722660791122,0.8461395382007065,-0.8919974122896299,-2.0112665288959706,1.9812687880659703,-0.559096190097666,-0.2515647619064044,-0.09898014633061354,0.24603665851312911,0.00405098526264241,-0.9305648395721926,-0.6984175848542308,-0.7749691056404189,-0.04733093944413536,-0.8105095275125217,-0.7568018568687331,-0.7241440535061464,0.16065234767101286,-0.6569940897230304,-0.40643257604747174,-0.5971855732102304,-0.42766773361487326,undefined,1491593881059
903d185fccf839df,-0.44915001362275786,-0.7313111069589051,0.7926428659202537,0.8718467323606018,-0.8357860809611771,-2.0360240120129984,1.90148836234897,-1.0966612726724876,-0.24972529020639195,0.003278817475916463,0.2799385766165816,-0.006718661124509903,-1.017602495543672,-0.7039725864822505,-0.739179579142054,0.08400866411886367,-0.766673852679027,-0.7566941967763875,-0.7164335674979709,0.3839606036811455,-0.6049529909133273,-0.43585990750929565,-0.5622067970409633,-0.41746522919647844,undefined,1491593882561
903d185fccf839df,-0.23708973745787962,-0.7618359160892095,0.6905611360758624,0.7588617389672518,-0.6957874582685031,-2.0214849013700844,1.9301585017075953,-0.8689206787186489,-0.22051190581151775,0.166827824304277,0.2490365041832708,-0.024470057968092044,-0.9784355503565063,-0.6817525799701717,-0.7307585088867443,0.18908019433976658,-0.7640087023145233,-0.7672638792313614,-0.7103323484991474,0.32247461421815293,-0.6148821300370493,-0.437045385562161,-0.5780098901370833,-0.4152025580265918,undefined,1491593884074
903d185fccf839df,-0.10680441841477945,-0.7700541406769051,0.5234020493187224,0.524191701284694,-0.6067236074103511,-2.019793873092676,1.891213710265048,-1.1020849113690114,-0.16833478165255483,0.061736337658362415,0.25922500660866105,-0.02546057655537848,-0.9566761363636364,-0.7039725670560886,-0.7118111228989988,0.22949233004464356,-0.7902228501921064,-0.7615388978203358,-0.6955201001851918,0.34483315579455326,-0.606085886912954,-0.40148314402798774,-0.5628073219141462,-0.3413982250843638,undefined,1491593885593
903d185fccf839df,-0.07215408595938563,-0.7371813007821074,0.3747456573013024,0.3401570837623811,-0.614540734310845,-1.9798660548360278,1.8874504473670268,-1.105147173007957,-0.037692113062681235,0.27716007087879835,0.3796897842617729,-0.06671950594599385,-0.9479723707664884,-0.6687908749693936,-0.6991795322405019,0.18099775589290257,-0.786875288220522,-0.7066322759712474,-0.6812116220096747,0.4060111811277399,-0.5677315096748229,-0.35175754466911074,-0.5207526809650065,-0.3048436395233805,undefined,1491593887069
903d185fccf839df,-0.004239296325174835,-0.6978512082239975,0.2713876516969068,0.3256613789775265,-0.612596741749663,-1.9716112309029696,1.8803026405053154,-1.1410918357264612,0.026121366310033135,0.38697730735129765,0.47122274237332756,-0.06459445006378702,-0.7826008244206774,-0.5317674712597671,-0.6812847689913195,0.21938935971404777,-0.6485233341300818,-0.6064197755136403,-0.6546027504964708,0.490132885558321,-0.5024455171852873,-0.289402224344505,-0.3960503992602876,-0.2730713952797862,undefined,1491593888571
903d185fccf839df,-0.35351506154046125,-0.7219188962169552,0.23374488674831287,0.27542966383350753,-0.8479026319364578,-1.9700133738532584,1.9089438556921672,-1.009207353552073,-0.0027604135663426366,0.24436036373743492,0.44134807061352055,-0.07495293557319674,-0.6563962232620321,-0.5076958277568224,-0.7118110934500638,0.1668534674123494,-0.6551417496160196,-0.5732921481227296,-0.623047132867653,0.5125992182318049,-0.47693676600079743,-0.2812114432368709,-0.3642010799923868,-0.30753342262232314,undefined,1491593890160
903d185fccf839df,-0.24124784636334637,-0.6931551174670187,0.6612123846086505,0.6985066489255128,-0.7785667489223294,-1.9586723081563227,2.0163924714095134,-0.2676055430638873,-0.015811461500937166,0.2929879215808753,0.4229086195086285,-0.07453304097237125,-0.8913978943850268,-0.4623299314833591,-0.6591794706144822,0.17291528918131702,-0.6524247351301696,-0.55650351470526,-0.5993769216902052,0.4639401294099315,-0.47151036531231577,-0.2616826498735924,-0.3860387076032213,-0.2133589482575733,undefined,1491593891565
903d185fccf839df,-0.2661960857312299,-0.7729892448955045,0.4966053410976202,0.5797594735876239,-0.8386146440438176,-1.9900751104352679,2.0346354363684567,-0.19618354766351867,-0.14422554908681468,0.004068259335123791,0.3836298791276668,-0.02680412083223137,-0.9262129567736186,-0.47621742907802106,-0.7360216667529622,0.18705954939714867,-0.6763872460639131,-0.5555915710261089,-0.596361296257411,0.47187032671464885,-0.46985100201306973,-0.2878368912157822,-0.3889547618938887,-0.2611424168664498,undefined,1491593893123
903d185fccf839df,-0.20105335719886033,-0.7747502752758724,0.6624886603686548,0.6798047519729775,-0.7913004410117332,-1.97103124961877,2.0239295080392368,-0.24270135784520352,-0.1917598614394485,-0.16837567813335305,0.387761720428664,-0.05390961098020602,-0.847879066399287,-0.516028330198852,-0.7318111316253073,0.1385650035101292,-0.66149395171592,-0.5714302636892495,-0.6039808221398707,0.39530925750387774,-0.49032971472866016,-0.28009105839444887,-0.40348672396769836,-0.2996791348886295,undefined,1491593894561
903d185fccf839df,-0.44915001362275786,-0.8035140247978165,0.46661921416125446,0.5311153755293266,-0.875303731983755,-2.012757240999648,1.9723274594321392,-0.6354991247912208,-0.21597448530724958,-0.1891441974910903,0.31534773450708437,0.013579804476088876,-0.9044535427807487,-0.6336092023088603,-0.7844427986342916,0.24969835549999975,-0.7266771244095642,-0.6327711572945579,-0.6521258779168617,0.25678484543272684,-0.5636526563982067,-0.332113678242475,-0.5475555359335671,-0.32779572815167746,undefined,1491593896074
903d185fccf839df,-0.5032046357694014,-0.8369739235327242,0.46534293840125013,0.48893016402891626,-0.96075730489185,-2.046004802322917,1.908060251156078,-1.0948413638384618,-0.23923469317634485,-0.24970528878032724,0.26675503361971775,0.034791514973514015,-0.8348234180035651,-0.7271184179651495,-0.7791796113191385,0.015307951452880338,-0.8460522445891278,-0.6823454386737423,-0.7176090313031755,0.14665516598371436,-0.6250172932796614,-0.3585243049168031,-0.5512727151219364,-0.3253972051286119,undefined,1491593897575
903d185fccf839df,-0.4616242023175191,-0.8293427212501481,0.37091733829518825,0.38154307242717456,-0.9983206661632137,-2.0586968268690478,1.9335667427093073,-0.947754427220246,-0.22663277212977775,-0.03988931610664747,0.2037147753382218,0.07829099224806083,-0.7390819964349377,-0.7419317729075681,-0.8749692228942991,-0.20291774528884027,-0.9289236622933597,-0.6976458304986614,-0.7831341646555414,-0.031812816402188554,-0.6953153342802088,-0.371399796843742,-0.5243991115382342,-0.40843759391754675,undefined,1491593899061
903d185fccf839df,-0.3285667531617582,-0.8663247026667859,0.3721931057812937,0.36868307626966096,-1.0553959982994856,-2.0653118659940706,1.9404042296197432,-0.9020688869050574,-0.25384884102603056,-0.08158281852943053,0.16061031876951662,0.045158120859012545,-0.9305648395721926,-0.7363767842303229,-0.8791797580219539,-0.12007277240702531,-0.8835789286030805,-0.6900146323984876,-0.8450069633297537,-0.019263084103892124,-0.7056332923505895,-0.37959945675032186,-0.49860139471373477,-0.45880698887060983,undefined,1491593900557
903d185fccf839df,-0.3382688807546782,-0.8287557135590248,0.5080897898420637,0.4571154429270518,-1.0261640461518546,-2.037927000772919,1.9805718906718648,-0.6039522153604432,-0.2738980223309123,-0.15976288032005295,0.15854793299783618,0.05020126936580598,-0.9044535427807487,-0.727118430915924,-0.8949692463450751,-0.08774304688429081,-0.8721626587536968,-0.6675390153870834,-0.8775911122002625,-0.030457756878125915,-0.708891568302456,-0.39535354850184556,-0.4556147314160348,-0.4296907758139875,undefined,1491593902075
903d185fccf839df,-0.22184366018832583,-0.7747502752758724,0.5119181088481778,0.561361006806535,-0.8948465515475925,-2.0189064342830223,1.981684297013226,-0.5395326808370101,-0.27148720008063887,-0.20853007910780855,0.14948383983820882,0.05091170203312128,-0.7086188168449198,-0.6641617242137432,-0.9623377494896824,-0.15240249792975982,-0.8921767513811407,-0.682079454242012,-0.9163464476828798,0.011549201222359024,-0.7184781653379385,-0.41925790472285973,-0.4980105167315958,-0.4784823324774293,undefined,1491593903559
903d185fccf839df,-0.3105485457795437,-0.7964698448203599,0.3556050788185296,0.3570563777456217,-0.7836787394682183,-2.0140080438268715,1.946184548108055,-0.7584410062234034,-0.2581476158010748,-0.3519145814584669,0.10256347637196589,0.03221795548418603,-0.5606548016934046,-0.6456450434864945,-0.9886535829941745,-0.10794918539853314,-0.8509160003944496,-0.6755058592585458,-0.9075794429815266,0.036356094830442366,-0.707161038158096,-0.43258663388340063,-0.4800418232796825,-0.4646930403344865,undefined,1491593905113
903d185fccf839df,-0.3590590802279145,-0.8134932797658802,0.281595824681346,0.285222301982507,-0.8503712008661175,-2.0134769775447836,1.938387175076975,-0.8328532905535627,-0.2535940786893635,-0.34223319871582075,0.11453437893954903,-0.040933433217822494,-0.691211285650624,-0.6484225313497298,-0.9370745534482209,0.005204882195759173,-0.8497545833282423,-0.6600028132525602,-0.8917946384267266,-0.03453834778886389,-0.7010937564035031,-0.4346377964803728,-0.492793161702735,-0.4851897182407043,undefined,1491593906562
903d185fccf839df,-0.43667596294963557,-0.7788593875697202,0.27521597070302095,0.2643160392147859,-0.9450921852594697,-2.0408478667262906,1.9588628395102274,-0.7479478501967045,-0.268211783685554,-0.4655346439313266,0.08994201821675415,0.0682065799762204,-0.7521376448306596,-0.6512000321637397,-0.940232458475079,-0.10592855458827598,-0.9213600593481158,-0.6510416991062138,-0.8866309917611734,-0.17803645826419526,-0.7223717660830729,-0.44057575210110034,-0.5282313605220126,-0.4601581243401985,undefined,1491593908071
903d185fccf839df,-0.4574661279174621,-0.8258206312614197,0.3638990922999117,0.35676831487602784,-1.0067343670088549,-2.0487463170517684,1.934392492616718,-0.9318679571151485,-0.23868064205677447,-0.3547650600850923,0.17360254450481577,0.006239858464385021,-0.5954698640819964,-0.6521258959868835,-0.9223377025881303,-0.12613463657307525,-0.8271472456394693,-0.659964817329009,-0.8703004354992132,-0.15298318654033854,-0.7204747163810084,-0.44041766549761374,-0.4982269363750813,-0.4230584900565145,undefined,1491593909571
903d185fccf839df,-0.47271220518701595,-0.9056547367689112,0.4334426519618273,0.4857921623705526,-1.0643548382614294,-2.075763163147883,1.9570640528935719,-0.8069057507145445,-0.2136992436060756,-0.3338503588815324,0.18213642881191175,0.047425000123210694,-0.45185773172905525,-0.6317575199902835,-0.8918113413182172,-0.2756595782517302,-0.8517322111734377,-0.680971189868065,-0.8562088580326788,-0.26885648601965506,-0.742758430711714,-0.4435413706465567,-0.48355744191080746,-0.4201879539647275,undefined,1491593911061
903d185fccf839df,-0.4782562928852887,-0.8780650026292136,0.7441540442441678,0.7174532157553475,-1.0559617119326785,-2.0509427900695667,2.012513514966962,-0.4164590999809598,-0.23169133342207612,-0.35576701019574886,0.15748789940959762,0.017142488359199525,-0.6128773952762924,-0.5808366738918986,-0.8897060737543897,-0.33829846914874595,-0.8218719033084998,-0.676367140213241,-0.8624710042260844,-0.3160989158007367,-0.7468695172022005,-0.447931635609128,-0.5038475661797094,-0.4435412921748255,undefined,1491593912562
903d185fccf839df,-0.4186577210620113,-0.8774780022450884,0.48958760337624246,0.46401263438785095,-1.0314097509392908,-2.070659799401362,2.0031198444245573,-0.48722930041117507,-0.2601738379871866,-0.3505945265091322,0.13523540421234553,-0.10161608740047823,-0.45185773172905525,-0.6113891893213943,-0.9107587420304302,-0.24130926431582086,-0.8868631661098296,-0.6951696489505246,-0.8681034364373911,-0.21851896824615147,-0.747878627913198,-0.43189576094155097,-0.5149753527285713,-0.4454559830014172,undefined,1491593914071
903d185fccf839df,-0.3992535348869908,-0.8305167512463908,0.6012396224620201,0.5780544189799129,-0.9574144472967698,-2.056810142973017,2.0189959956939156,-0.35850505165579316,-0.22787351352945012,-0.20810396030692493,0.14089330764727298,-0.046223397246392246,-0.7956564728163993,-0.5752816528377172,-0.8854955459889686,-0.18473229411429817,-0.8767567263346577,-0.6978168195073343,-0.8359740807387629,-0.15010367487251636,-0.7217968637628002,-0.41962417423206405,-0.4680807702139116,-0.43861278794749764,undefined,1491593915568
903d185fccf839df,-0.4061836013780696,-0.812906279381755,0.5942208681928446,0.6070622256650628,-0.9918921046139364,-2.040952682671399,1.95741909155023,-0.7662435342425162,-0.18682136325976767,-0.05057676643683486,0.16877538803326733,0.07647066532252753,-0.7651932932263815,-0.6067600061888075,-0.9202324129376015,-0.2029176887593972,-0.9410561440729956,-0.7132375367361405,-0.8819431285288534,-0.17380188330286375,-0.7444687464655717,-0.4339662622036876,-0.5466142574322279,-0.47008115059483213,undefined,1491593917063
903d185fccf839df,-0.38955144179948054,-0.811145249001387,0.5476462060198158,0.6166999437380922,-0.9504613156866577,-2.0079683267329376,1.9427263602196867,-0.811960811904956,-0.10309183480184234,0.13137630410703466,0.22300380684607815,0.11107868140806403,-0.43445020053475936,-0.6447192055648997,-0.9076008370035721,-0.07764000589189118,-0.9618992828475871,-0.7075568854325567,-0.9019120274315326,-0.07100186299777143,-0.7336977561388416,-0.4308886379133077,-0.5318895578333489,-0.4614899059897899,undefined,1491593918572
903d185fccf839df,-0.2758981098079207,-0.6174301096393789,0.46215301141208764,0.4709866157825039,-0.8308797984965312,-1.9593571043640559,1.9380374002173313,-0.7797298824502638,-0.09308884989838401,0.2337297609028253,0.3247776194016137,0.001509996128609967,-0.6041736296791445,-0.6410158797800697,-0.8865481834519993,-0.015001185656679319,-0.9622667770423832,-0.704206758797493,-0.8641012621880165,0.02944219553098408,-0.6978726156370507,-0.4333557180237558,-0.5475938171130939,-0.4572394287676314,undefined,1491593920106
903d185fccf839df,-0.26619612023663963,-0.6972642224538684,0.4098358707298877,0.4526328116436992,-0.8571803304771074,-1.9548616719858953,1.9415245206576477,-0.7570660121434624,-0.144894931884078,0.25508792762762145,0.2899684623899843,-0.028913255854600747,-0.6346368092691622,-0.6660133741553838,-0.8928639861434815,-0.002877513854022534,-0.9099698332569446,-0.7199947876288444,-0.870650276838265,0.0310128393762585,-0.7051673634184394,-0.42795249606352875,-0.5353248954589753,-0.4609008734628276,undefined,1491593921559
903d185fccf839df,-0.2772842266223656,-0.7530306765033926,0.47044702489346973,0.5051413354859743,-0.7842238810331587,-1.9994596150424222,1.9401280955422124,-0.8045280289795214,-0.19673415932671748,0.18549281892129083,0.2503147107041424,0.05794800763661888,-0.6215811608734403,-0.6567550596933085,-0.8749692228942991,-0.09582554186059788,-0.9419117091919098,-0.6940550491081804,-0.8805787526467458,-0.04018957473673672,-0.7079196620039382,-0.4514555654464185,-0.5950214660177144,-0.4931437271726208,undefined,1491593923071
903d185fccf839df,-0.27867023992058143,-0.786490560624304,0.4225960869604366,0.5133948000332672,-0.8419472131891421,-2.034442458700047,1.9890188204446173,-0.5272595671212167,-0.2839097712086951,0.017805194105211496,0.21337972730200058,0.11207196719361957,-0.3604681929590018,-0.6150925345323862,-0.8686534275650506,-0.10794912886909007,-0.9378907090403094,-0.6605157794259325,-0.8542847363139413,0.005451418966136728,-0.6797581911415191,-0.43776398323359295,-0.5786769013176617,-0.480985103177947,undefined,1491593924547
903d185fccf839df,-0.23015973997762035,-0.7547917288047549,0.7077875550555781,0.7401659374745648,-0.7788341756969782,-2.018491828537966,2.004910740059539,-0.3795789350209488,-0.17985132929950212,0.44665513305524873,0.29151290118070383,-0.0006782093924081444,-0.5258397393048129,-0.5808366997934478,-0.8676007974642538,-0.07561937508163402,-0.8741521686634064,-0.6206499004328934,-0.8276128930073653,0.012919664307545592,-0.6530496525540125,-0.41658951668421734,-0.5352507216124833,-0.4528359168539703,undefined,1491593926058
