UUID,iqrAccX,iqrAccY,iqrAccZ,iqrAccXYZ,meanAccX,meanAccY,meanAccZ,meanAccXYZ, covarianceAccXY, covarianceAccXZ, covarianceAccYZ,pressureDerivative, pressureIQR, iqrGyroX, iqrGyroY, iqrGyroZ, iqrGyroMagnitude, meanGyroX, meanGyroY, meanGyroZ, meanGyroMagnitude, covarianceGyroXY, covarianceGyroXZ, covarianceGyroYZ, class, timestamp 
903d185fccf839df,-1.1296831986494773,-0.8598675376874506,-0.7009418416187172,-0.7616789203146642,-1.807332672838388,-1.6888084433902522,1.8967108258376066,-0.9535010781302071,-0.2743200362481013,-0.6490971081697671,0.08301346778354271,-1.7924014053225075,1.3628773952762925,-0.7373025897749813,-1.1812853994341235,-0.920233528557967,-1.1474016165227092,-0.9075245901395096,-1.1779410980952019,-0.9376818752203883,-1.0715056154271085,-0.4549721532463536,-0.6693953116457085,-0.5140070534776705,undefined,1486924483427
903d185fccf839df,-1.0548384201613596,-0.7729892595095006,-0.8432183796578122,-0.9247337461863965,-1.7534919574945471,-1.803778740342677,1.9208175399250915,-0.9209042423969513,-0.30008331691786727,-0.6610989096072514,0.06894586224719065,-0.7086265533324122,0.8341236352495545,-0.913211037257682,-1.1223379370958908,-0.8394092147511308,-1.162531710562398,-0.9992914820821365,-1.1382509010197133,-0.9026833661645088,-1.0952348569830708,-0.4748857568107978,-0.6681110579736469,-0.5124748554698589,undefined,1486924484865
903d185fccf839df,-1.0631544999506541,-0.8974364975672194,-0.8221636416719823,-0.8807478619262975,-1.7609171353662383,-1.821353051610821,1.9260484863942684,-0.9178994366515287,-0.29431077135524825,-0.6497739522650767,0.07279829595576733,-0.30695553092404887,0.029025317513369,-0.9280243662985516,-1.1265484869480134,-0.8474916108009125,-1.1631031252754482,-1.0097856920025594,-1.158156328186754,-0.9043414704152422,-1.1092703477605428,-0.4697695170954222,-0.663004375246602,-0.5234428521145867,undefined,1486924486360
903d185fccf839df,-1.0742426494681423,-0.9714004457864989,-0.8285440039242062,-0.8636142248780088,-1.7238737360930039,-1.8723227509658285,1.945169452351262,-0.8497923157837358,-0.29057355207071855,-0.6414656476893241,0.07342676690439616,-0.05292553868170387,0.2400916332442068,-0.9632060778114084,-1.1412853230836362,-0.8434504339745628,-1.2006597441777105,-1.0123180523713813,-1.1589829704966668,-0.9052371921578743,-1.110659535653924,-0.47809070394602177,-0.668038893732953,-0.5273761408829523,undefined,1486924487873
903d185fccf839df,-1.1061209553271045,-0.9250262609349093,-0.8202499904428242,-0.8858304129570007,-1.7444348440828008,-1.832709380121831,1.933048678235861,-0.8935420649047429,-0.2992105764470521,-0.6379997202675498,0.07291533713221247,0.15948723081745558,0.19657280525846704,-1.0020910956829336,-1.1960222429319802,-0.8636564876946405,-1.196209827569068,-1.0374097984798294,-1.1792858286706325,-0.9613420267731692,-1.1404886085999224,-0.47384134619066265,-0.6650485022074477,-0.5233820129481184,undefined,1486924489378
903d185fccf839df,-1.107506985878025,-0.9250262609349093,-0.8502366256530888,-0.9155924455677409,-1.6904040772056386,-1.8427367539014248,1.9324464537664467,-0.9065718356189358,-0.30275470232791657,-0.6520356870960107,0.07612288585501277,0.14700312513528146,-0.9262129567736186,-1.044679445814676,-1.2191801732501728,-0.9161922881359938,-1.1985384306801805,-1.0765775140899996,-1.2041672598018827,-1.021717282300737,-1.180159540193252,-0.47317437652050814,-0.660310528145101,-0.5206908059538651,undefined,1486924490875
903d185fccf839df,-1.232248303486377,-1.0600398274147977,-0.9210559528011099,-0.9755186523578411,-1.715892032990579,-1.8656844180469636,1.93435306703896,-0.9303697476898263,-0.29004907640445005,-0.6787617428810861,0.08726438397941229,0.008091961493773683,-0.9827874331550802,-1.0780094555827942,-1.263390751598263,-1.0050990439227843,-1.2273063997200293,-1.1186725909018709,-1.2409075133421739,-1.118250136924668,-1.2308804858780196,-0.4698501361173983,-0.6577706596096482,-0.5208834419010426,undefined,1486924492356
903d185fccf839df,-1.2835308472784743,-1.0541696774335838,-0.9267979230363822,-0.9921018176327104,-1.7134954665148594,-1.8883432575062131,1.9407697853952124,-0.911676792611606,-0.28115119016316614,-0.6800465651740918,0.08719954742466501,-0.008490896217985338,-0.9740836675579323,-1.0983778056778453,-1.290759203239922,-1.1061294361813296,-1.2671632286263939,-1.137633424161249,-1.2627935378561759,-1.1845558429221417,-1.2608906872886445,-0.47295637120289236,-0.6643248774750373,-0.5186191808052782,undefined,1486924493865
903d185fccf839df,-1.2668986876998853,-0.8698467926555142,-0.9197796770411056,-0.9544153904386518,-1.7439514151796953,-1.8527501551586705,1.9559411346710083,-0.7567378930081815,-0.30237261756515527,-0.6647297073637292,0.07019572265941902,-0.06833137123782666,-0.5911179812834225,-1.1057844831490546,-1.305496064223084,-1.126335518166129,-1.2907778930959861,-1.1427377765548334,-1.2834831081201095,-1.2054207364076237,-1.273643819659899,-0.47211855221369,-0.665228322492623,-0.5246403492295022,undefined,1486924495345
903d185fccf839df,-1.0437503396546908,-0.8105581901612771,-0.4967783819299348,-0.5461989674462239,-1.5665128540306734,-1.8564909132782212,1.9275050452018425,-0.9107981043421681,-0.3591730923424061,-0.6688016508243564,0.09896335250175246,-0.06766667705897635,-0.6172292780748664,-1.088193637105707,-1.284443410671511,-1.0414699816027706,-1.2088026294989864,-1.0799339741670408,-1.2522983220611104,-1.1519265373714804,-1.222729786834334,-0.4390246878754903,-0.6370448711766225,-0.5101766437198114,undefined,1486924496856
903d185fccf839df,-0.8774285368363421,-0.7090045370302923,0.1807898623230602,0.14566286486654023,-1.4108491169709907,-1.8589040046653156,1.968848227878453,-0.5987104886641129,-0.3587263401252911,-0.7008017035585024,0.1219646977515472,-0.07326195873601163,-0.9131573083778967,-0.8780293500275275,-1.1833906577951587,-0.9121510865780128,-1.0274350851133105,-0.9898161853664564,-1.1919578254827234,-1.021132141454552,-1.1347846888398982,-0.4163305070236217,-0.5915715882014896,-0.4870865160947202,undefined,1486924498348
903d185fccf839df,-0.6210158351285598,-0.680240772894352,0.6363300900275549,0.6453916145010412,-1.267209359783286,-1.8678739047378996,1.9262558869853281,-0.8430573082606292,-0.31575707004458836,-0.60527933837937,0.11238301895337557,0.07676490504981516,-0.9479723707664884,-0.7697067939984411,-1.091811594231562,-0.8252649262705776,-0.9638494993980851,-0.8638032713705547,-1.1185053052663902,-0.9025949071301189,-1.0229203978022277,-0.3925924893227457,-0.5880898876883707,-0.4852429702404587,undefined,1486924499862
903d185fccf839df,-0.5129066943515019,-0.6479549187696834,1.062521820401787,1.0856328586259194,-1.1155878999492759,-1.8570708926683175,1.9365515649266978,-0.7283448379611721,-0.304473418250579,-0.3409225021868179,0.1356701886526049,0.03995650150999206,-0.678155637254902,-0.6937883887708695,-1.0465483747393245,-0.7868734001774167,-0.9557738396891038,-0.784666807006228,-1.0705561599737317,-0.8041680453990833,-0.9499549137462531,-0.4025841870221997,-0.5969988426865812,-0.5061706144019794,undefined,1486924501361
903d185fccf839df,-0.5544871278033843,-0.632692499590535,0.7384120740088955,0.7438244466664904,-1.0611662749842348,-1.8550514413132668,1.9230396200651794,-0.8114381371634225,-0.2812656187844183,-0.29385173038916756,0.127869076677174,-0.07615204542228737,-0.6476924576648841,-0.6771234097883595,-1.0665484055523344,-0.7565642842663981,-1.0012323232839826,-0.7334839562885962,-1.0542675842772955,-0.7835495266234102,-0.9148506578174732,-0.42144642707864644,-0.6104837530495602,-0.5148972530015192,undefined,1486924502860
903d185fccf839df,-0.5336969283301479,-0.600406616237874,0.8455981444824557,0.7863331288091061,-0.9793435532487499,-1.8481871726926762,1.911263345489668,-0.8736368544101071,-0.3434309925046182,-0.23402860303506884,0.13879401371271802,-0.09603585870996692,-0.10805899064171122,-0.6965658960602666,-1.0444431145377309,-0.7525230509106053,-1.0132193395696132,-0.7362514524098565,-1.0474526907280943,-0.7329964291193422,-0.9057940676494918,-0.4299274098394737,-0.595142393540955,-0.5189121945112621,undefined,1486924504358
903d185fccf839df,-0.5697332740837575,-0.6409107095642343,0.7179954739030678,0.6488995486848579,-0.9698395691772029,-1.833920583511211,1.9562829923609337,-0.5581193048742182,-0.37550829822739457,-0.16231354577559876,0.09815743746863528,-0.23079621094104752,0.09212761809269164,-0.6539775459285241,-1.0244431021303055,-0.7282757497023741,-1.0077834893604078,-0.7180822379074322,-1.0413724616603017,-0.6829052858267882,-0.8853553255982269,-0.41628616422669146,-0.6074052085225021,-0.5181510143839675,undefined,1486924505853
903d185fccf839df,-0.10541833610574422,-0.6051027654508374,1.4178939694910486,1.34894928407796,-0.605283608648659,-1.813027308764453,1.9310131831194322,-0.5457645522768761,-0.39134783155277053,-0.042521134207993035,0.08530111149419659,-0.19609140429547323,-0.24731924019607843,-0.6956400581386718,-1.0170746582946757,-0.6858430114519615,-0.9305281301990688,-0.7468274699290509,-1.0280155496906078,-0.6214500906833872,-0.8881428983761724,-0.4252874625965238,-0.5957423061681141,-0.4798475416172394,undefined,1486924507370
903d185fccf839df,-0.2287737266794046,-0.6279963796055639,1.6571484050192646,1.602495043451923,-0.6255875737263679,-1.8546251916114302,1.9309553295382758,-0.596601668625165,-0.31076218746844214,-0.18916500813859313,0.14169256525039114,-0.10594004797731271,-0.8739903631907309,-0.7335992445639894,-1.0054957014180925,-0.6514926692513306,-0.9197911477430196,-0.7417421161118118,-1.0314090024886657,-0.568802806591046,-0.8763374139422324,-0.40431310386865077,-0.6086097920268205,-0.48209023007988594,undefined,1486924508854
903d185fccf839df,-0.34519891274034725,-0.5599025521395059,1.5001977453835131,1.533240222425521,-0.6011179022943257,-1.8718219646431684,1.8778779596167898,-0.9537740117647937,-0.32247270586183213,-0.3151825775655848,0.1406861864429704,-0.09883002705151941,-0.9610280191622104,-0.6845300548826324,-1.0065483315188894,-0.6555338743424018,-0.8454594631273995,-0.7331673090991899,-1.0207528593338575,-0.5598871054256513,-0.867960291379386,-0.39972121045893444,-0.6011603282376977,-0.48477349488048604,undefined,1486924510386
903d185fccf839df,-0.338268777238449,-0.5522713717779241,1.441500496586039,1.3695630443828395,-0.6712149289338333,-1.9111395227783357,1.9059064269302861,-0.8619902593139753,-0.3989352777814435,-0.2334791424938088,0.16857318691916182,-0.08153876932969498,-0.2560230057932264,-0.5799108424456911,-1.002337781666767,-0.590874409164572,-0.8468801552474677,-0.6855815693051301,-1.0049400669177275,-0.4972000332330049,-0.8290802282819003,-0.40868985078131087,-0.5974900842936473,-0.495902968813845,undefined,1486924511858
903d185fccf839df,-0.34797093933677875,-0.6503029495341766,1.3528168667152494,1.4292615325674907,-0.6700526486093825,-1.9234775027327613,1.9202099379205133,-0.7772015750986565,-0.4455878314511649,-0.24974272871383904,0.1418828160253583,-0.0861317087803242,-0.5214878565062389,-0.5641716690078395,-0.997074623800549,-0.582791970717708,-0.7907176572255475,-0.660465114209977,-1.0057237097420324,-0.5315077702796729,-0.8201192132797135,-0.4209582370010507,-0.6073452616991525,-0.4835567762664499,undefined,1486924513363
903d185fccf839df,-0.36460306440995804,-0.6168431238692499,1.7630581997328205,1.725917136861562,-0.7689187668126918,-1.8891678086178978,2.0229564619022953,-0.08447453391578015,-0.4268496935785517,-0.36768919653735543,0.16476441047573695,-0.1271965984445531,-0.4605614973262032,-0.5947241909127224,-1.0497062797661827,-0.5868332747353047,-0.8099532266917777,-0.6835043630204224,-1.0322276295141635,-0.5131682227628188,-0.8376180154882801,-0.43070915740382276,-0.5923247381577346,-0.47331391250040045,undefined,1486924514857
903d185fccf839df,-0.2953024685099899,-0.5270296830167158,1.6941530320878566,1.5994116804512686,-0.8086215568410398,-1.8748103784649979,1.9580107748078317,-0.4906581563452026,-0.46167200661671964,-0.5362308556962382,0.18186951593577166,-0.037606794764272464,-0.4692652629233512,-0.6437933741186922,-1.0897063303488517,-0.6716988077655729,-0.8923574402146497,-0.7050300410104741,-1.0580528576953463,-0.5976902917829828,-0.8766348857708957,-0.4394441062810868,-0.5534667207093316,-0.4946123635462269,undefined,1486924516342
903d185fccf839df,-0.2953024685099899,-0.5000270223311244,1.332400520746371,1.3176366275250193,-0.8163872560945599,-1.866753540089706,1.9235603221985031,-0.7240279058707904,-0.504995946404983,-0.5586683178954641,0.13958223492003555,-0.18254587678021528,-0.3517644273618538,-0.6567550726440831,-1.0854957915400798,-0.6090599168685572,-0.9311917758482791,-0.7049793779039881,-1.0489849911967815,-0.5785192280100947,-0.8672786476550943,-0.44372231234895426,-0.5678609023136533,-0.4942491911640563,undefined,1486924517842
903d185fccf839df,-0.3549009713224478,-0.6086248554395658,1.2545634558769723,1.3027066939277792,-0.8052478479443523,-1.8712396546593053,1.8955292119875213,-0.9637200679631048,-0.3694558015240602,-0.326598792150323,0.10979970927506195,0.014918196299182628,-0.5475991532976827,-0.6947142461186261,-1.1265484759046624,-0.5100501094900965,-0.9457632443201685,-0.722907941631858,-1.0629086445905696,-0.4893622275971762,-0.860285586713039,-0.4384717946135201,-0.5568286164906018,-0.5092963823818932,undefined,1486924519351
903d185fccf839df,-0.6113136730302301,-0.701373312826722,1.2609433098552971,1.271319620830895,-0.5699419597940881,-1.9072077667448295,1.9413141384755994,-0.6631166560932571,-0.31592870174076815,-0.33679851780140063,0.09884730904553955,0.02468108369897921,-0.23861547459893048,-0.7734101197832712,-1.1139168815650486,-0.3968961125576081,-0.9877192806641845,-0.7523434644866291,-1.064328997057843,-0.4603823537249835,-0.8740281278832727,-0.43065000776195816,-0.5489889329931088,-0.49030144007147186,undefined,1486924520840
903d185fccf839df,-0.6764565050788288,-0.7647710203078089,1.2328705800111401,1.2440284214813542,-0.5374494379262835,-1.9250543980932404,1.9598542759397828,-0.5521991167030891,-0.27266996785677605,-0.4014763509057475,0.1201732425192313,0.2033006621700342,-0.1863928810160428,-0.714156751816695,-1.1181274203738205,-0.3585045370011844,-0.9574567621085232,-0.7406591826986845,-1.0691358061423542,-0.4228101442647433,-0.8616563076407093,-0.4398071129535393,-0.5565055071780836,-0.4977285190017554,undefined,1486924522355
903d185fccf839df,-0.2897583808117172,-0.8234725785759323,1.4153421803818884,1.4954488301326971,-0.6197350132097653,-1.939325645275651,1.9575531921477227,-0.5925254873349645,-0.25548356606933736,-0.33899389492909865,0.12630857156353412,0.1363409413330499,-0.2560230057932264,-0.7752617891510735,-1.1307590073512006,-0.36254569969517336,-0.9492938670322215,-0.7731851808997863,-1.0662251332274995,-0.4038392592729837,-0.8710142012410996,-0.45153824367414674,-0.5423043366886006,-0.4958360526316387,undefined,1486924523850
903d185fccf839df,-0.23293176657405185,-0.8311037735515103,1.536564234572103,1.5769858105280823,-0.6558069504370787,-1.9275280483812391,1.908394226244504,-0.8902888995508896,-0.30866853196708294,-0.5891355618650237,0.17193060837642532,-0.04834601547584724,-0.4605614973262032,-0.7493384115264538,-1.1202326768942972,-0.37264878308465527,-0.9124063776573607,-0.7530907498528984,-1.0655044615726263,-0.3825586084739542,-0.8610467317146395,-0.4504627195514998,-0.49627406280319475,-0.487602988641378,undefined,1486924525341
903d185fccf839df,-0.39232336487968283,-0.7782723652646008,1.5665508697823676,1.541879823954048,-0.6354927069542311,-1.9236475356848222,1.9407855390754716,-0.6756092144495077,-0.3355412348061923,-0.5374207099164016,0.14252274236161253,-0.09139308172582655,0.16610962566844922,-0.7289700808575645,-1.091811601593796,-0.4777204122320836,-0.9407574463075525,-0.73168540152443,-1.0346065447534538,-0.4122930068461304,-0.8508129817070857,-0.44503984208351216,-0.5044762911750822,-0.481680717141389,undefined,1486924526841
903d185fccf839df,-0.3160927024886359,-0.7630099753134446,1.581224991379024,1.5658922913828321,-0.5263923218340718,-1.915513833519366,2.005328874096411,-0.22256617054067535,-0.26350885820133463,-0.42669059569763784,0.17706761659161324,-0.10101124639586634,0.17481339126559717,-0.7178600905522997,-1.0844431577581661,-0.4817615890584333,-0.8470575493627782,-0.7240732031799116,-1.0175413231965162,-0.3144512852208528,-0.8225331670335679,-0.4258671888630782,-0.5257761322548046,-0.4968954194746512,undefined,1486924528347
903d185fccf839df,-0.2065973758863136,-0.7465735261380535,1.1646038043831277,1.2674259571801736,-0.5510779921657293,-1.9097303317907592,1.950710428870011,-0.5735390515868817,-0.27221552482647154,-0.4426994391859531,0.2811588152645784,-0.17832451252137552,-0.19074476381461675,-0.7132309138951003,-1.0486536496653858,0.14664752675115783,-0.6650098849413354,-0.719450154633152,-1.0189476819992163,0.07431326513066892,-0.7306989351891429,-0.39921153957401945,-0.5799939503531878,-0.5311496298291014,undefined,1486924529856
903d185fccf839df,-0.03750364998776262,-0.6620432787245967,1.1205809313192592,1.1769955069660833,-0.5956664918782854,-1.88403416558107,1.940435776786089,-0.5959183747815161,-0.33998263418655145,-0.394358306986035,0.24076027013866785,-0.02983077506143327,-0.2342635918003565,-0.6437933741186922,-1.0212851897412139,0.16281231885072123,-0.6504863096012778,-0.6973798471133609,-1.010033745187012,0.07354334386802781,-0.7154895101723815,-0.39263533944908646,-0.6003054017453716,-0.5317702319965834,undefined,1486924531349
903d185fccf839df,-0.1636309636416253,-0.6966772220697433,1.5040255561157285,1.502064333542644,-0.5085877743269374,-1.858151659225515,1.9166149981569922,-0.680337563205688,-0.4033882502511036,-0.427176490091471,0.22579453162147184,-0.16292567865790303,-0.19074476381461675,-0.5919466641971636,-1.0391799456281623,0.07592611261311351,-0.6708146140886588,-0.6585209064086402,-1.0218443619468431,0.08013387645930511,-0.6957570527212376,-0.38897957693555213,-0.6756570458564902,-0.5274044851176555,undefined,1486924532860
903d185fccf839df,0.15238027538402465,-0.5827961662942324,1.9921044622765975,1.8665128365108377,-0.36692287199488555,-1.8346636119184847,1.9602329671147867,-0.3225930121981734,-0.39059257988312296,0.10267484278034418,0.09716123470567747,0.02633207156609079,-0.6563962232620321,-0.5845399932013415,-1.0107588592843104,0.05167885380196455,-0.720089757735032,-0.6443984418198095,-1.0173943905657148,0.07927156410665463,-0.6838400024907666,-0.3848691226153605,-0.7125961085462831,-0.5499750137787928,undefined,1486924534356
903d185fccf839df,0.03595502031226251,-0.6244742603888432,1.320916326138877,1.3638753692160688,-0.4362073163531726,-1.8875885848821223,1.922950204128611,-0.6611059560427355,-0.210859680601841,0.489737148077009,0.10264950683587024,0.1346916086161887,-0.147225935828877,-0.6224991731512719,-1.031811516517,-0.24535049767161365,-0.7889693385644291,-0.633011809447742,-1.0185978422383664,-0.1694441278322123,-0.7287749892715917,-0.40675437944974996,-0.6773959645013158,-0.5739626853141111,undefined,1486924535840
903d185fccf839df,0.14406419559473013,-0.6896330128642942,1.3789754370563492,1.3639744074368132,-0.5511808406879136,-1.921765511227643,1.9816869236741246,-0.3662004927646204,-0.14433929317926572,0.2420712751611932,0.15558223736297752,0.07675639443532553,-0.4779690285204991,-0.650274220143694,-1.0054956940558588,-0.4756997955541872,-0.9706705938136891,-0.6152035700662561,-1.0099917652637793,-0.4757500020245936,-0.7879136057248348,-0.42939423852088177,-0.6249780725075421,-0.5412827300137664,undefined,1486924537352
903d185fccf839df,-0.46994028210681366,-0.684349892495198,1.2130926260592134,1.2570393129526725,-0.932389344141587,-1.951742820618367,1.9958983884005586,-0.39831665689233414,-0.2867292088853983,-0.5908042839587045,0.25591075652795475,-0.0434528560391379,-0.5345435049019608,-0.6521258700853345,-0.969706167557494,-0.45347306862677,-0.9440645947951584,-0.6246143233410407,-0.9845653545073493,-0.4957063873229809,-0.7904876224160335,-0.41984961144861754,-0.6309889064535148,-0.535004159258251,undefined,1486924538841
903d185fccf839df,-0.3826213062975823,-0.6015806754621091,1.9442535243435644,1.9305571342651333,-0.8065129796357281,-1.8831560432245225,1.9612059896824878,-0.47174206830864257,-0.347675954753712,-0.9140660022499718,0.24436021174994393,0.012432206058443713,-0.36917195855614976,-0.632683351436491,-0.9876009234444425,-0.5181325055398782,-0.9280955421500131,-0.6395664027820132,-0.9877558996187056,-0.5268420435038045,-0.8053076353955761,-0.4237442874462786,-0.6575714924417733,-0.5423441666979592,undefined,1486924540352
903d185fccf839df,-0.36321712012256174,-0.6520640529845254,2.025919162356027,2.0887857912603836,-0.8856202809239873,-1.8970126868527124,1.8720897642883487,-1.0926942561840123,-0.3678277423951725,-0.4733745241380657,0.11978494202415091,0.08102353236890034,-0.3735238413547237,-0.5447291503589962,-1.0033904338542652,-0.5120706979032714,-0.8887072329094047,-0.6381604887762589,-0.9899319077218304,-0.5405004649916053,-0.8080607526895122,-0.43591243648659883,-0.631737193634995,-0.5220571679763807,undefined,1486924541902
903d185fccf839df,-0.24263382515615237,-0.6356275453531496,2.3627891249794675,2.242656027699744,-0.7501062280256183,-1.89743893791091,1.856502915492993,-1.1350969409463654,-0.335719462924856,-0.6824854777665901,0.12873232173144664,0.0940051651658812,-0.40398702094474154,-0.5669491698218494,-0.9981272686258135,-0.4393288790727422,-0.8817046371610375,-0.6600788067994191,-0.987881841945335,-0.48894646919318185,-0.8067015274776056,-0.418083993138767,-0.639680017824476,-0.5363579875646155,undefined,1486924543345
903d185fccf839df,-0.12205059920056245,-0.6649783537152036,2.0463352541879556,1.9733716747856962,-0.749159943744039,-1.9223082254019508,1.8562110025946807,-1.1548359416743392,-0.2815079324923071,-0.895580328908806,0.1194209597220671,0.05858224971899159,-0.9871393159536542,-0.6419417241770518,-0.9991798987266103,-0.36254574209225565,-0.9081975196469458,-0.6911988922515899,-0.9884905644854889,-0.4173436968313516,-0.8123955616299899,-0.4251837153071127,-0.6245842573534733,-0.5382442903250534,undefined,1486924544836
903d185fccf839df,-0.12482255678617449,-0.6297573953719356,1.8696061323263786,1.7456396761619712,-0.8000227125164632,-1.892216784020283,1.9334142067757634,-0.5814590005701112,-0.36113743052190134,-1.3156388417765201,0.05816774819767601,-0.033544991186140634,-0.9784355503565063,-0.7011950986190152,-0.9949693562367217,-0.3160717704860503,-0.8967512790594199,-0.7078735337182229,-1.0037086280076863,-0.38060300487914034,-0.8232256304316984,-0.43347663761635424,-0.5757516939917509,-0.5275919433661651,undefined,1486924546354
903d185fccf839df,-0.38816539399585503,-0.6808277878924734,1.6144018077154005,1.5943937784937634,-0.9052865336675407,-1.8960297486013429,1.848839643583167,-1.2004969952687006,-0.3781118062730215,-1.1008540242333933,-0.011267823819279441,-0.06972920413304758,-0.8565828319964349,-0.7243409236265269,-1.0044430565928282,-0.3504220561572381,-0.9303647648957305,-0.7107930192973574,-0.9967817851908396,-0.30159358163080185,-0.8158138503870875,-0.4180943738935705,-0.5571782943745829,-0.5164937337986043,undefined,1486924547859
903d185fccf839df,-0.3562871226423025,-0.6937421178511439,1.3330386586263732,1.2946635885869,-0.9358761942733246,-1.8768903886711203,1.8798082385016717,-1.0231263724775248,-0.35296806760458616,-0.9858660946332293,0.06337729156132764,-0.062409568988501835,-0.7216744652406417,-0.7567451148992121,-1.0539168148938374,-0.34233967423981715,-0.9621882909171788,-0.7250421430088859,-1.0176812595119225,-0.24375702158460977,-0.8249050886160951,-0.4388965808115275,-0.5549815892115165,-0.5032123897073363,undefined,1486924549350
903d185fccf839df,-0.32302263095807576,-0.650889964532298,1.4510705316904757,1.4954154353173963,-0.902159682914145,-1.8841296644121062,1.8705381723883847,-1.0624206958714237,-0.29970267835940956,-0.9072410273555748,0.11425536496873837,-0.09477925996352521,-0.6825075200534759,-0.6956400710894464,-1.0349694215438583,-0.3787106048536229,-0.9098861490348144,-0.6882604068946533,-1.00510099386151,-0.15401488102554642,-0.7911647143187945,-0.4314131889714557,-0.5499618043374443,-0.4872633580188627,undefined,1486924550874
903d185fccf839df,-0.34658496054397275,-0.5117672930655598,1.9570137405741133,1.938782344259381,-0.9793126972519196,-1.8631152685501042,1.8650629173869864,-1.064886999417327,-0.28506417451036964,-0.9151016460797251,0.06833534636636641,-0.04136149945291069,-0.865286597593583,-0.684530067833407,-1.047601019564589,-0.45549372770174873,-0.9614972851813101,-0.6943400326477762,-1.021417557009433,-0.24458853736946312,-0.8123187514052309,-0.43440856430687086,-0.5572549538338085,-0.5047347355508892,undefined,1486924552338
903d185fccf839df,-0.38400728509038834,-0.5786870613073827,1.9238371783746862,1.8821208408116348,-0.9643675776405521,-1.8889674943070114,1.825118793295601,-1.3634595381284464,-0.3020191169574108,-0.5444530778623565,0.03713667900882798,0.04549576705049342,-0.852230949197861,-0.6808267420485768,-1.0465483857826752,-0.5322768222851529,-0.951525436109072,-0.6895649933475627,-1.0225230532686407,-0.19195665026863865,-0.7997493739608577,-0.42022948588105125,-0.5739683768279177,-0.4904358148999135,undefined,1486924553836
903d185fccf839df,-0.12205053018974299,-0.5305517730054442,2.4725272386991377,2.4803364490839286,-0.7851084521667766,-1.900855931329323,1.854593653037863,-1.0911565361821265,-0.3860600046365865,-0.5662533870629144,0.04651861421128339,0.014418606366680756,-0.8130640040106952,-0.6067600191395821,-0.9918114732965649,-0.4494319059327811,-0.8366649316651822,-0.6110491591744502,-0.9919749771829309,-0.17022944024372796,-0.7420512972516492,-0.40419940094679196,-0.577295890955039,-0.4967284570013966,undefined,1486924555356
903d185fccf839df,-0.11373441589503874,-0.4806554543231378,2.3174902302925444,2.509879847697367,-0.6443383959405878,-1.8977929817030232,1.750632164045964,-1.7537563063727437,-0.17570643193234667,-0.12338694286710074,0.25253226924938277,-0.041521663289286,-1.0001949643493762,-0.6104633708259614,-0.9749693548726469,-0.4554936429075841,-0.8410689115314924,-0.5946848323355761,-0.9787300137223673,-0.13990990251968294,-0.7250468120299309,-0.4023231954340287,-0.5242653131531598,-0.47398388281046006,undefined,1486924556855
903d185fccf839df,-0.23431771086144812,-0.4612839886131243,2.591835133386295,2.5845692481252596,-0.5958619022233543,-1.8760262409933262,1.7991994220748184,-1.394453084090038,-0.04390842319467467,-0.6011127731308565,0.42591215899483964,-0.02993542461519913,-0.9871393159536542,-0.5299158472196758,-0.9707588271072259,-0.4615555494707163,-0.8323128205323894,-0.5873829484139599,-0.9672482467005993,-0.14177311595338704,-0.7170163708467164,-0.40603764819529925,-0.5367033844290923,-0.47730914547471137,undefined,1486924558338
903d185fccf839df,-0.08047009673786068,-0.6150820496468934,2.0744077298951633,2.132154528871639,-0.6226458565753348,-1.8899923595103179,1.8591195521314505,-1.0584488588087777,-0.13964855606259866,-0.8085121519009657,0.336304620131087,-0.036576672917495584,-0.9610280191622104,-0.5271383205041168,-0.9697061822819615,-0.27363904636799846,-0.8380683003842728,-0.5851537513481148,-0.9331317968842725,-0.0870162437040706,-0.6924486790872658,-0.4233237880224297,-0.5366675314508943,-0.4787433699983564,undefined,1486924559854
903d185fccf839df,-0.08324212333429219,-0.7107655527966642,1.6246097265628903,1.7605894343023498,-0.7058982879825891,-1.899712273968661,1.9015146540984753,-0.8117573491602887,-0.22220310745067187,-0.9003038709626693,0.22853039330281724,-0.020206879136727727,-0.8348234180035651,-0.5836141747059085,-1.0023378111157022,-0.33829846914874595,-0.841812466217075,-0.6229804233296803,-0.9368331094954793,-0.13196430659450942,-0.7206892404176766,-0.4343201731626087,-0.5224375192961481,-0.4892985289313578,undefined,1486924561346
903d185fccf839df,-0.13452471888450424,-0.6679134287058105,1.425550099229378,1.544417669117377,-0.5755167923309638,-1.872497442332901,1.9652243414214394,-0.3575307024650507,-0.28746700714841894,-0.6398328024626897,0.2831950181027714,-0.022319487440978458,-0.8087121212121212,-0.6021308683839318,-1.008653591720483,-0.3241542089329143,-0.8698535400819173,-0.6949289955737372,-0.9705437437610087,-0.15393788924257112,-0.7714476236755056,-0.44949331171367923,-0.547186491877394,-0.4896519919254748,undefined,1486924562841
903d185fccf839df,-0.3119345245723497,-0.7201577927666064,1.4402247290999335,1.5549273206950256,-0.7240628325034496,-1.929097956696809,1.9930187625118014,-0.28160507755380976,-0.3064955167963956,-0.8913775788039194,0.32431816418931925,-0.0028777037187086383,-0.843527183600713,-0.6576808781887414,-1.0244430726813705,-0.2938451000880762,-0.9128570660998995,-0.6932824302619086,-0.9770647715592424,-0.20887954233913777,-0.7798901097146073,-0.47164087310919917,-0.5192421277572302,-0.5015000749203746,undefined,1486924564348
903d185fccf839df,-0.28560034091706993,-0.7307241065747798,1.333676542369426,1.309979764205524,-0.8152866786553975,-1.963535757654878,1.95587537963296,-0.6049788883989055,-0.32643108209696475,-0.9349356348613632,0.31401666988015586,0.08525363772835341,-0.7303782308377896,-0.6669392120769785,-1.0623378741057965,-0.4049785086073898,-0.9257014434948244,-0.6994570510449857,-1.0046392032303442,-0.3768303856371017,-0.8177037956388,-0.47567332957119746,-0.562705584347344,-0.49496569709646415,undefined,1486924565837
903d185fccf839df,-0.2994604738992274,-0.7365942711699899,1.2411648476294717,1.3107447794800784,-0.9174647951520954,-1.989103817213898,1.9149135210773829,-0.9685104794047048,-0.35569059674503883,-0.6243767633406843,0.2828090310978494,0.026136898210392393,-0.6999150512477719,-0.6836042428625867,-1.0665483945089838,-0.548441699178881,-0.9782516616065283,-0.6715794328386896,-1.0166527271997459,-0.4471242913610676,-0.8206901289217285,-0.479169569410188,-0.5336401813927795,-0.5157139236982334,undefined,1486924567350
903d185fccf839df,-0.37430526101369754,-0.6849369074933193,1.245630796241689,1.3293060240362862,-0.8985082559563141,-1.9279706045706122,1.934526613117125,-0.764358333737328,-0.3407641885830494,-0.5801272171057195,0.3338193243328683,0.05913522217361932,-0.678155637254902,-0.7067500872962603,-1.0665484018712175,-0.5444004516907275,-0.989805272037366,-0.678153028497629,-1.0219073321803644,-0.4758577911561799,-0.8302483673398247,-0.47470769795539264,-0.5374379736890356,-0.5100298660197414,undefined,1486924568846
903d185fccf839df,-0.2703541601312869,-0.5651857163505908,0.8570820849530003,0.9259825091130282,-0.8070889822308097,-1.903669652326241,1.8976278066742507,-0.9637121507135487,-0.2786715600544728,-0.655805072595689,0.3944869900308299,-0.05614546472362276,-0.8957497771836007,-0.7261925800435547,-1.0644431306262732,-0.5565240810963019,-1.013548340745906,-0.7127499000342247,-1.0465011226076308,-0.4867136934053247,-0.8546994841855167,-0.47063506656000825,-0.5921794426633851,-0.5199940224722746,undefined,1486924570365
903d185fccf839df,-0.12620857008439024,-0.5481622814050705,0.3843154382687899,0.4136187237037065,-0.8107609814649475,-1.8673172155138102,1.9301637686471755,-0.7173983709665254,-0.2931861837205364,-0.8618957453264787,0.461106211118108,-0.1917240295151203,0.19222092245989306,-0.7345250824855842,-1.0949694955773033,-0.46761734297496244,-0.9962806296961598,-0.7542750118819104,-1.0675335358093037,-0.4160964228444386,-0.8654834462309947,-0.46477437931231286,-0.6411039403903229,-0.5128169665121736,undefined,1486924571850
903d185fccf839df,-0.19273734642038529,-0.5980586147013731,0.5010717979837365,0.5394993247635997,-0.8448786424445641,-1.9407464815772748,1.8578940679074785,-1.2788723443155523,-0.29227312287149854,-0.674957982640446,0.4508125765161505,-0.2784055806475023,0.9668560606060607,-0.7511900873696433,-1.0960221256781,-0.0655163340892344,-0.907561056343917,-0.7700313758398483,-1.0777838638170403,-0.039727618465489244,-0.7979554723502936,-0.4562453720334632,-0.5479014800750641,-0.553266999328712,undefined,1486924573352
903d185fccf839df,-0.44776403482995186,-0.623887260004718,0.47044702489346973,0.5011674267659636,-0.957671596412474,-1.9507459057166736,1.9205860170999243,-0.8948950223694723,-0.3203170906269606,-0.7850397802046976,0.4339723238351108,-0.33134470878683997,-0.1646334670231729,-0.7474867680602005,-1.0644431416696238,0.18908016607504505,-0.7991411472719626,-0.7904551200631573,-1.0548483183260622,0.18587500692581324,-0.7546767770383064,-0.45200629899588873,-0.5643237187474271,-0.5220583548757382,undefined,1486924574960
903d185fccf839df,-0.4546940668156209,-0.6549991133611361,0.47810315463179903,0.4956624475754504,-0.9935583924254423,-1.96595816768682,1.9516545466450912,-0.7162534455852069,-0.21838819374001692,-0.5790815032580933,0.37871382115778285,-0.22066332757026322,-0.6825075200534759,-0.7752617956264608,-1.091811594231562,0.1547299369333003,-0.8095483280145926,-0.8274521776133676,-1.0688909175903925,0.1628543319663634,-0.7845234468135873,-0.4536064770503325,-0.5569400191900888,-0.49785382603084954,undefined,1486924576359
903d185fccf839df,-0.43251778503334937,-0.71487467239751,0.13230104064697437,0.20778296299504767,-1.0500371501284398,-1.968790522307544,1.9363648546421484,-0.8562918327868508,-0.2178156317615291,-0.6934055868328898,0.2901966868255702,-0.27507628466505973,0.15740586007130128,-0.8456251474229145,-1.091811594231562,0.027431594990815586,-0.8133715191343901,-0.8412516622684347,-1.0726272151980103,0.10575689555149291,-0.8039363749753383,-0.4583501344747498,-0.5288202653482537,-0.5091642975471681,undefined,1486924577836
903d185fccf839df,-0.38677934619222953,-0.7031343724350823,0.7920047280402515,0.8515251047240113,-1.037858886539337,-1.9605520028120782,1.8994607854497816,-1.083840694531631,-0.21380006515343955,-0.6091143967859873,0.38450284548052155,-0.36841283156535365,0.9407447638146168,-0.8011851408741443,-1.0781273697911515,-0.04126910354280697,-0.8159935249878396,-0.8417962947381439,-1.0696675640748345,0.059669347119149486,-0.8137075533335104,-0.4619529052572845,-0.5070501207231222,-0.5052738767275604,undefined,1486924579355
903d185fccf839df,-0.49073041256923045,-0.6679134579338029,1.2073501475500423,1.178364253275839,-1.02271834341147,-1.9490455612371358,1.9120338857609298,-0.9743875325476192,-0.26566357497066195,-0.7779095255653916,0.4846826840829288,-0.2981971982823218,0.7405581550802139,-0.8530318313695111,-1.0823378975565725,-0.2655565796564129,-0.9298034454433626,-0.8518276763604329,-1.0716756488576116,-0.23365564230074526,-0.8827355939881569,-0.458620454552533,-0.5891680841767226,-0.4939258355955515,undefined,1486924580850
903d185fccf839df,-0.4339037983315651,-0.6368016045773847,1.2456310503786385,1.2174951371309268,-0.8236181076643099,-1.9423140595486952,1.988208842025336,-0.40798557646934824,-0.26086786984076477,-0.799769961963225,0.5309960130660013,-0.28046819752349283,-0.43880208333333337,-0.8502543305555013,-1.0749694610831766,0.28404878249479526,-0.8020563898631429,-0.8557287694608497,-1.0698424840164302,0.22580317336980849,-0.7782380253156125,-0.47663078679409643,-0.536807665762687,-0.4651139440850325,undefined,1486924582358
903d185fccf839df,-0.580821449480303,-0.6438458137828337,0.9783041391432149,0.9879108527626974,-0.984568690865209,-1.9581063007154955,2.02807143121037,-0.1870636770815703,-0.2979512512405614,-0.7969041638421152,0.42669669992703707,-0.18909513341864226,-0.2908380681818182,-0.8169243272627703,-1.0897063340299684,0.306275537686934,-0.7575298331530611,-0.830371663214649,-1.076132617275948,0.3032881522421401,-0.7550776841983173,-0.4791750995461257,-0.541787703553838,-0.4584470720372401,undefined,1486924583837
903d185fccf839df,-0.6431921169108313,-0.6362145895792632,0.8813264957910432,0.96287839311753,-1.1446038495283355,-1.9548756477754692,1.9957932067372308,-0.42590758450487093,-0.3710492088872235,-1.0845046704019683,0.3639013064649695,-0.2567496672171532,0.13999832887700536,-0.8141468070225987,-1.1054958186719728,0.2739456708405918,-0.7857794293418486,-0.8381358517312716,-1.0818909927864968,0.2851949783042611,-0.7642462592889291,-0.47952180197896566,-0.5547427496332104,-0.44918186453118486,undefined,1486924585359
903d185fccf839df,-0.7817935157432261,-0.6802407582803559,0.8966387552677019,0.9575298628959323,-1.2264265693153127,-1.91863501544759,1.9019380634551015,-1.050726366183313,-0.29049494897506606,-0.887190587844063,0.4750040116350089,-0.298706928499349,0.2792585784313726,-0.842847653084292,-1.072864193519349,0.24565723520309313,-0.8151198233418161,-0.8569066972893612,-1.0652315864378008,0.1922807586698406,-0.7866327106576863,-0.4861827812082814,-0.5236687220665345,-0.47348120085205003,undefined,1486924586851
903d185fccf839df,-0.4838003460781517,-0.639736708795984,1.0299828878084631,1.0976328252008174,-1.1072873404927246,-1.9038280416187072,1.9308790793793742,-0.8316258616618462,-0.22965058405827715,-0.7483458938398183,0.4162529541493799,-0.2998971152254013,0.09647950089126561,-0.8252568297047999,-1.0665483871467498,0.1506886329157037,-0.8335992568341867,-0.8446334526585056,-1.0612014234523566,0.14329830509182095,-0.7887944731970181,-0.48691051387322304,-0.5388588354666484,-0.4737835774489877,undefined,1486924588343
903d185fccf839df,-0.5669612129819163,-0.5387700268211322,1.128874690663692,1.0940034826529925,-1.029373181631337,-1.9216653557049068,1.896652143827868,-1.0283199679864499,-0.23779775334550574,-0.7927835844739912,0.3495035946166851,-0.16896964800865535,-0.0601882798573975,-0.7669292931844313,-1.0623378667435626,-0.4413494674859171,-0.8714408915340139,-0.8067117850379526,-1.054939277889008,-0.33259065221994044,-0.8747531608726951,-0.453948381095256,-0.45541045994734,-0.5073569140074773,undefined,1486924589857
903d185fccf839df,-0.551715066701543,-0.671435533308535,1.1448253421573023,1.0940034826529925,-0.9736864150763417,-1.954351569119524,1.9557307378236555,-0.6431005316517129,-0.2958340799369689,-1.0442308882778648,0.2551380891980561,-0.07376270296470129,-0.7216744652406417,-0.7039725735314759,-1.017074654613559,-0.27565960651645177,-0.8560948848625963,-0.7411594853267117,-1.0202141053245475,-0.255444439712844,-0.8185063007691296,-0.45295164465574644,-0.39822145872887205,-0.49896451958036697,undefined,1486924591344
903d185fccf839df,-0.4158856944655798,-0.7571397814902423,1.2724277585997406,1.2569812050527855,-0.8341712216788751,-1.9810306748689896,1.9414061831681095,-0.732845489264884,-0.315874725898906,-0.872678534121945,0.2727565373786076,-0.04945485066348436,-0.8870460115864528,-0.6354608716766627,-1.0065483315188894,-0.17867042994824825,-0.8283657288352846,-0.6868291615460494,-0.9898549424657485,-0.1823480181561863,-0.7712257902476811,-0.4425653267826344,-0.403630646418025,-0.5054609988662099,undefined,1486924592842
903d185fccf839df,-0.3216366521652697,-0.7929477402176354,1.2724277585997406,1.1879048056210018,-0.6948000261114446,-1.9701414808808457,1.947467893245836,-0.6407805886661145,-0.3009327147569767,-0.8991934969428708,0.2534040697457145,-0.055521262480207306,-0.35611631016042783,-0.5900949883539739,-1.0002325214651733,-0.15442317113709927,-0.795145189137404,-0.6284394202757556,-1.0044712798916453,-0.13296520599277428,-0.7419731229113726,-0.42773092298377813,-0.4219482039761951,-0.49918555869718806,undefined,1486924594360
903d185fccf839df,-0.36183114132975575,-0.8017529651894563,1.2366991531542038,1.1565392429709356,-0.8102672615314143,-1.9657485359261693,1.890832397666755,-1.040911733384,-0.26520149962791334,-0.6045275512877755,0.21117090015691156,-0.14689907005379854,-0.2342635918003565,-0.5586166155767217,-1.020232559640417,-0.2736389757061946,-0.803136389818234,-0.6305736220182033,-0.9966348516852985,-0.26871790314735655,-0.7686005742920298,-0.4065142128119814,-0.5107810985720675,-0.4830964010535137,undefined,1486924595843
903d185fccf839df,-0.2911443941099329,-0.7894256794568995,1.269875207079732,1.2199309713135875,-0.7819815878918587,-1.9444220205946259,1.9570588037618626,-0.5675790608005035,-0.30850170463214294,-0.6515357694784825,0.23651600758059696,-0.1009836891368565,-0.5084322081105169,-0.5752816463623299,-1.0170746619757927,-0.30798930377446476,-0.858136231210501,-0.5969203594217392,-0.9785690863870928,-0.2818065819517102,-0.7501004851326618,-0.4104024388672105,-0.5506687676137659,-0.4523544191262283,undefined,1486924597361
903d185fccf839df,-0.14422681197201448,-0.8046880694080555,1.3062419504052711,1.2650887495702101,-0.7844810164552962,-1.955688550529676,1.9573927893255063,-0.5768377486337014,-0.26637632881761586,-0.839324275942997,0.30101192543834654,0.1717845487250631,-0.5258397393048129,-0.5558391536150356,-0.9844430257798183,-0.3140511679405147,-0.8506970796909165,-0.583646508787379,-0.982375351479537,-0.21513131586175138,-0.7331005776457354,-0.37752294571258516,-0.5307773330754941,-0.45716781031342735,undefined,1486924598853
903d185fccf839df,-0.22877369217399485,-0.7506826165109071,1.5040255561157285,1.461611847438847,-0.7671290475199124,-1.9448459417073372,1.9776501753574278,-0.4253339018233035,-0.22824469731215075,-1.0553417570923078,0.338171565823602,0.014408369732354018,-0.34741254456327986,-0.5613941681938297,-0.9781272341316867,-0.32011298970948227,-0.8307254828585756,-0.5924683000663625,-0.9985659730165266,-0.22484773608265457,-0.7426336542855672,-0.37434583750970296,-0.5533698329234594,-0.4468041298787674,undefined,1486924600345
903d185fccf839df,-0.3036184447830552,-0.7019603424388395,1.5186999318493344,1.547174835867903,-0.7952501459738021,-1.958642026180475,2.005294698697884,-0.2674666702141781,-0.21517610694179645,-1.1889091084016645,0.31812049822268357,-0.024150552682738965,-0.34741254456327986,-0.5771333092547449,-0.9760219628867424,-0.3221335922550179,-0.8517917624432861,-0.5909357282334904,-0.9909814304666371,-0.21215941541943725,-0.7396238545696463,-0.3697217769751272,-0.5515319874812609,-0.4437775597825843,undefined,1486924601835
903d185fccf839df,-0.40756951116005613,-0.6626302937227181,1.7598685268806076,1.7490046074885326,-0.8390775044215933,-1.9474150925850213,1.9720960283471642,-0.46899088031293207,-0.18229243406316906,-1.142226774633722,0.21768722619828024,-0.07446589259145034,-0.20815229500891266,-0.5845399608244052,-0.9939167261359249,-0.328195385759264,-0.8327326485394327,-0.5812336584366758,-0.998468018239257,-0.19106354474069318,-0.7385897569983589,-0.36470184548217094,-0.5513766146819196,-0.452671587433658,undefined,1486924603348
903d185fccf839df,-0.12205059920056245,-0.6649783537152036,1.8670543432172184,1.9190730174310466,-0.7299256881895578,-1.9420974415069374,1.9232131954739549,-0.7581344381840504,-0.12443767517481627,-0.9281810639477337,0.2214561910103857,-0.09552679086460493,-0.4213945521390374,-0.6058341941687618,-0.9854956558806152,-0.2797008681369661,-0.8090102405959251,-0.6039815926075577,-0.9980761959431892,-0.17332453529040018,-0.746766044908354,-0.35931027947300365,-0.5399889968518117,-0.46806088436835525,undefined,1486924604843
903d185fccf839df,-0.1733330912345453,-0.5974715412472671,1.7911306754400282,1.8968118993035377,-0.5657042398189064,-1.9063296430862844,1.9776554422970076,-0.30876720809303587,-0.02545456529660252,-0.5769349438800873,0.29878659595932844,-0.06850366852710772,-0.7303782308377896,-0.6400900418584748,-0.9823377876649261,-0.1443201584094212,-0.855691000304989,-0.6397310602201018,-0.9894981057655635,-0.19086336208241958,-0.7591844272419537,-0.3668353779978629,-0.591848929227731,-0.4793923311286145,undefined,1486924606355
903d185fccf839df,-0.17610508332556707,-0.5992325862416312,1.7011710239461837,1.7447369365317886,-0.5687076617857306,-1.9045221527827472,1.9117183151066621,-0.7357766982231689,-0.019254043506132416,-0.6108777019993114,0.4321711985236322,-0.022497116921461124,-0.6650999888591801,-0.666939199126204,-0.9654956471543067,-0.23120618092633893,-0.9141782029706257,-0.6356399782169401,-0.9598736078469527,-0.1250504049660714,-0.7383905318687288,-0.3775563693139491,-0.5852593927212139,-0.5062674787288175,undefined,1486924607842
903d185fccf839df,-0.4283597451387021,-0.6174301242533751,1.8785385378247124,1.8941505113579595,-0.7281051151025218,-1.9230978360801911,1.940362151716803,-0.6062920366283648,-0.08537909521106593,-0.8352873363515912,0.5154939092667086,0.03743276957309198,-0.6563962232620321,-0.7169342396799303,-0.9370745681726885,-0.2736389615738338,-0.9363719911128945,-0.6553480985700273,-0.9531356789849467,-0.11942997209546839,-0.7467016881204026,-0.377143334519974,-0.5935299362917196,-0.498630619815327,undefined,1486924609361
903d185fccf839df,-0.2079835272061683,-0.6661524129394387,1.9365976487421845,1.9136318205462304,-0.552538557172157,-1.94758047034943,1.8592037037472433,-1.1086380799598414,-0.17268207510037673,-0.7779206422258949,0.401376698178194,-0.061810486088300816,-0.9262129567736186,-0.7169342655814794,-0.9160219072588818,-0.23928864763792448,-0.9740120737339798,-0.649040485986335,-0.9539403128719388,-0.08680066779680197,-0.7347087775837801,-0.3836978355328832,-0.5718634329846671,-0.4954788718416206,undefined,1486924610835
903d185fccf839df,-0.27174013892409293,-0.6391496645698702,1.8415336566191711,1.764704381416504,-0.5683271070254824,-1.9355522788127693,1.9168806119731467,-0.7338091664399579,-0.21132740166918956,-0.9346640494304612,0.45300101797849995,0.05436350618118505,-0.9218610739750446,-0.6965658831094921,-0.910758749392664,-0.3787106048536229,-0.9560758964505427,-0.6358172989069307,-0.9377636862045831,-0.10555597447153982,-0.7266582190570139,-0.38232015083815823,-0.5583519829652439,-0.5029479338954702,undefined,1486924612350
903d185fccf839df,-0.22461558326852812,-0.678479742513984,1.9621178270663329,1.9898878665878055,-0.6780034953248754,-1.9397588846562923,1.8888521373269977,-0.9631012241140012,-0.161060594886452,-0.6095645768233232,0.4361497743544887,0.03600943426028565,-0.9436204879679144,-0.6613842104489588,-0.9370745534482209,-0.45549369943702717,-0.9424593466109594,-0.6362416064322959,-0.9582083676045849,-0.19426641972419445,-0.7510544936426479,-0.3716624998083962,-0.5666961084581513,-0.49648089530627443,undefined,1486924613839
903d185fccf839df,-0.4477640693353616,-0.6690875025440418,1.8479137647344455,1.7853408022996216,-0.9616110154194368,-1.9386874344910423,1.9173119007887065,-0.8507831331850959,-0.14043401746239234,-0.9081374191782241,0.3944189806979211,0.016161209957186572,-0.8565828319964349,-0.6493483951728737,-0.9876009381689101,-0.508029506944561,-0.9299099092109029,-0.6622130080435671,-0.9836837557251817,-0.3080609305760409,-0.7909466043104445,-0.38601958556247595,-0.555174102753306,-0.48159152699884844,undefined,1486924615350
903d185fccf839df,-0.49211646037285595,-0.6896330128642942,1.6890491997325865,1.7117175866585168,-0.9921081060802204,-1.9487381013033938,1.9276444085488282,-0.7972300351663733,-0.13636930534109556,-0.7550937563419287,0.31989087720301285,-0.02098993493861193,-0.9566761363636364,-0.6530517080069292,-0.9739167174096164,-0.5949156707850863,-0.9784041387086044,-0.6936687398040828,-0.9817876200204217,-0.37495177709660416,-0.8163018066474055,-0.3954694387351607,-0.5763320015720492,-0.5038943264760266,undefined,1486924616852
903d185fccf839df,-0.45469403231021116,-0.6690874440880572,1.5659127319023654,1.4931952303321498,-0.9629584390967899,-1.9333348416186231,1.9562435657356536,-0.5918004968583068,-0.15527116361178106,-0.8338395446972173,0.2113462578755713,0.0712541570318899,-0.8391753008021391,-0.6567550596933085,-1.0044430713172958,-0.5605653144520947,-0.9600326713376564,-0.7340729206817735,-1.002631119499702,-0.43365065019548676,-0.8552725571216374,-0.4000060433356479,-0.5823424429230806,-0.5119315603198851,undefined,1486924618351
903d185fccf839df,-0.3147066546850104,-0.6315184695942921,1.5786726939959648,1.5996106053137145,-0.9443927585290279,-1.9514376885624984,1.9269107043814497,-0.800889633164395,-0.09834560634225223,-0.563540747497757,0.25104010281387057,0.01087807586504016,-0.7086188168449198,-0.6660133871061583,-1.0233904499428075,-0.5201531363501354,-0.9748791418215726,-0.742299414911809,-1.0071930402035294,-0.4072577159121594,-0.8551160800782411,-0.4175698035826395,-0.5759484757357624,-0.5019476895202243,undefined,1486924619864
903d185fccf839df,-0.2772841576115462,-0.48006845393901254,1.8453619756252853,1.8498384945419568,-0.9073848160234301,-1.9350375154637731,1.9605617134981785,-0.539219644247242,-0.1327960020224918,-0.8752984244900462,0.3145608824957956,0.07581642717324218,-0.6215811608734403,-0.6567550402671467,-0.994969378323423,-0.5666271362210623,-0.9484145594029487,-0.7182722272309637,-0.996103095061869,-0.4183599937461634,-0.8454167555802555,-0.4168436374392762,-0.5641321612908897,-0.5001362117104808,undefined,1486924621351
903d185fccf839df,-0.3632170511117423,-0.47419830395779866,1.8651401837141612,1.8435450322072673,-0.9560258789567746,-1.9327758256369945,1.9725825467017868,-0.45689431004847636,-0.10620556553558386,-0.9288957271892908,0.2867804771813888,-0.002731975686038403,-0.9392686051693405,-0.666939225027753,-0.9844430405042859,-0.5100501236224573,-0.9178468655900175,-0.7125092484956104,-0.9920099609131101,-0.3862080403139703,-0.8333369274285043,-0.4091333943689739,-0.5617814805410367,-0.48840097289096596,undefined,1486924622874
903d185fccf839df,-0.45746616242287186,-0.45247874902730734,1.7751805322203167,1.6813635590415676,-0.9768338447717805,-1.91935242033027,1.946252925616914,-0.6094462464787547,-0.1655311624947161,-1.200090027179847,0.2413455012902299,-0.03633917450868719,-0.8913978943850268,-0.6854559057550018,-1.027600992432696,-0.48176156079371174,-0.9256743841638199,-0.70042599120616,-1.0093760454845546,-0.3693775395623399,-0.8321291293560963,-0.4068255875234042,-0.5456777617562365,-0.4826554150719917,undefined,1486924624338
903d185fccf839df,-0.5517151012069528,-0.6197781550178683,1.9984843162549226,2.03508849038978,-0.9110465277540586,-1.9263774059236811,1.9321177058117724,-0.7220069588475461,-0.14441336445069217,-0.5524742518402369,0.22034025082279574,-0.053043690333080526,-0.6955631684491979,-0.7132309138951003,-1.032864150298914,-0.5262150005161853,-0.9366434432953543,-0.6956256210780067,-0.9982791027735021,-0.4281072092694066,-0.8319258620279395,-0.4200143998117228,-0.5677247374037527,-0.5029258365429053,undefined,1486924625825
903d185fccf839df,-0.3784632318975253,-0.6432587695567199,1.7764562997064222,1.6725660970521425,-0.8253666695951392,-1.891282757563146,1.9661421433540125,-0.45653920196072656,-0.2410426783542141,-0.4292940663069615,0.27645511959887786,-0.10749904579385948,-0.7042669340463459,-0.665087562135338,-1.013916779035636,-0.36860757799358407,-0.9074626702488443,-0.640256694966112,-1.0297227708532892,-0.3725496189742549,-0.8068797298475118,-0.4065798848258467,-0.5055670583229931,-0.5145062892727109,undefined,1486924627324
903d185fccf839df,-0.2232296044757221,-0.5951235397107661,1.8000628268014125,1.625958978329803,-0.7937587288315495,-1.8814836470659664,1.9522330971219626,-0.5157668291216762,-0.25226388533627736,-0.782291319993386,0.22891481074341424,-0.03593181798738936,-0.7434338792335116,-0.5725042103021928,-0.9802325016955141,-0.33021603070188194,-0.8772572525208798,-0.5855717264668592,-1.0338718795624664,-0.3989425571885765,-0.7787542375704879,-0.4187555188310307,-0.5398825014118871,-0.5476316745509643,undefined,1486924628826
903d185fccf839df,-0.4990465268639347,-0.592775421262296,1.9314930539760662,1.804506952073388,-0.8451152196040449,-1.9013380832467066,1.9546235889941774,-0.5234215033519609,-0.23592757741641424,-0.9135478920371134,0.25522203563515167,-0.032811109542240126,-0.9697317847593583,-0.5762074972346992,-0.9991798913643765,-0.3989166868384222,-0.8537255679913631,-0.6393700805369508,-1.028036538844772,-0.3936916859720865,-0.8038293469593966,-0.42339265526428815,-0.5544240676334597,-0.5315053641684504,undefined,1486924630322
903d185fccf839df,-0.4976605825765384,-0.6761316679075023,2.253051265396747,2.248694956401535,-0.8954945562365204,-1.9277446696539808,1.964953464332031,-0.4981374581679932,-0.29582182117831135,-0.6622890601168013,0.29601323693148784,0.06990232543945565,-0.8087121212121212,-0.6067600061888075,-1.020232559640417,-0.5545034644184056,-0.8521574210783326,-0.6570453258976185,-0.9868253229034849,-0.3283252846083439,-0.7846500608869746,-0.42788448521131367,-0.5596010779458299,-0.5311316696803577,undefined,1486924631823
903d185fccf839df,-0.2398618330651306,-0.6866979671016796,2.6562740982820925,2.5290548282643184,-0.8425540705687387,-1.8893401742394922,1.9304188574881054,-0.6332209926401683,-0.33141548804987836,-0.8223827143211413,0.25205540824227207,0.04841333527962645,-0.6346368092691622,-0.6271283498084713,-0.966548291979571,-0.45549369943702717,-0.8112428456219091,-0.604475559866848,-0.9761271994645373,-0.23708949648339267,-0.7442909940821043,-0.4191383476920439,-0.4825238667150503,-0.5173980725174794,undefined,1486924633319
903d185fccf839df,-0.31332060688138497,-0.6925680586269088,2.6792424874970804,2.571940572613453,-0.811573552497238,-1.8754998347553333,1.9415508323100674,-0.5376405489416204,-0.3175159670766428,-0.8854466631724586,0.20542086933065692,-0.031422956200383746,-0.6825075200534759,-0.5863916366675948,-1.0107588666465441,-0.44337008416381346,-0.8488822864662267,-0.6043299027491545,-1.0027360717117886,-0.20880255157929797,-0.7488045628911406,-0.41811690181269157,-0.4786774779928043,-0.5087220356808889,undefined,1486924634829
903d185fccf839df,-0.3188646255688382,-0.6849368928793231,2.3876716736975125,2.3617854887029774,-0.8682580311908412,-1.8856855979365723,1.9883692752256847,-0.2775015694926729,-0.27250539898555826,-0.9720227104555171,0.3196613613775649,-0.02679198438306193,-0.5563029188948306,-0.5734299964206894,-0.9486535360926224,-0.38477245488731204,-0.8368550812608856,-0.5984465983053973,-0.9824103363719577,-0.2021350226413227,-0.7399494814538068,-0.4050084148074511,-0.46596032471842336,-0.5131064198489047,undefined,1486924636352
903d185fccf839df,-0.47548426628885715,-0.7254409569776912,1.9908284406535426,1.9324116123522628,-0.9698189981112114,-1.915255289813172,1.9769112068692745,-0.43974085791579015,-0.2953370422609152,-1.0593908237784195,0.4208958523128685,0.01969064075694134,-0.6476924576648841,-0.6512000580652888,-1.0328641576611477,-0.34031908582664233,-0.8962792854942028,-0.624924637033103,-1.011803938993337,-0.23978422111130238,-0.772300120276093,-0.40818196355744996,-0.4851610284798994,-0.5073409355090438,undefined,1486924637847
903d185fccf839df,-0.34104094185651945,-0.5687078355673114,1.775818670100319,1.4822406540588917,-0.9152533768765406,-1.8790146554104323,1.9614979088659314,-0.45201846519300043,-0.41049597122889375,-1.4491856647095054,0.31902558046691065,-0.025964926370861285,-0.6259330436720143,-0.5928725021187583,-1.027600992432696,-0.3665869613156877,-0.9246715387108553,-0.6464186488873812,-1.0173174262761286,-0.22837397113741828,-0.780023152529135,-0.440689684292918,-0.511668289947374,-0.5313559162355986,undefined,1486924639360
903d185fccf839df,-0.3687611733154248,-0.6215392000122324,1.6737366861189784,1.4547390047639421,-0.8694820263716982,-1.9059383311785605,1.9087360991234954,-0.8333190407847909,-0.30246166626795706,-1.2144565140771182,0.09839432780785741,0.03800469703326167,-0.7086188168449198,-0.5993533416683728,-0.9739167321340839,-0.3140511820728754,-0.9142731040393735,-0.59637572691881,-0.9795346476399448,-0.19471296900142895,-0.7347611106431535,-0.4112833129588836,-0.56168828033638,-0.5366384529517151,undefined,1486924640838
903d185fccf839df,-0.3521289447260163,-0.6884589828680514,1.8753483566986004,1.7401387364742824,-0.7401908122135274,-1.8968170288448287,1.9511864295820616,-0.5172809272980651,-0.2771379308475945,-1.4247916086627683,0.24637284019029926,-0.06401809899535657,-0.7782489416221035,-0.5734300223222385,-1.0244430947680718,-0.336277824206128,-0.91869630976755,-0.6158938590612354,-1.0055907710204863,-0.1642086472126422,-0.7484438335020416,-0.41764423882202995,-0.5550207669853604,-0.5242850731047474,undefined,1486924642346
903d185fccf839df,-0.47409828749605115,-0.6420847395604772,1.8377055917500065,1.636192406199393,-0.9498030307381078,-1.8947882602212247,1.9245386038493708,-0.7505903279525669,-0.3730665878392903,-1.0195392639242173,0.2739418344367825,-0.044791687364814564,-0.8565828319964349,-0.6049083691979417,-1.0402325757289592,-0.23928864763792448,-0.9113539247399494,-0.6363176029578811,-1.011775951743713,-0.17722033443595522,-0.7575400210614953,-0.40910668948248285,-0.5811717164030272,-0.5280386712582035,undefined,1486924643842
903d185fccf839df,-0.5766634095856558,-0.6461938445473269,1.5761209048868046,1.4553812982128074,-0.9653550025957345,-1.8479635648765251,2.015616680959021,-0.09001016884856006,-0.42665188971201756,-0.9986098312914664,0.16452254650993342,-0.027714757447484313,-0.8304715352049912,-0.5641716560570651,-0.9886535535452393,-0.27970078334280146,-0.8666867950741642,-0.5961604080795284,-1.0068432003203382,-0.20061057310925137,-0.7406948880435207,-0.38133884478835645,-0.5791648826044432,-0.5160135066239682,undefined,1486924645361
903d185fccf839df,-0.6126997553392654,-0.456000780560051,1.425550099229378,1.2728672760747788,-0.9619401503947587,-1.73848699280977,1.9984124867969348,-0.023293524308318193,-0.39633832267524594,-0.9195466514277372,0.04301342039257156,-0.05514245072958487,-0.8000083556149733,-0.526212482582522,-1.0223378345664782,-0.2574740988124666,-0.7531646276304736,-0.5436793030886047,-0.9883506296198259,-0.19662237638485391,-0.7013209368144829,-0.37652283916603246,-0.6285905524696555,-0.5070547022764514,undefined,1486924646832
903d185fccf839df,-0.6667543084750894,-0.3761667700435346,1.1333408934128588,1.0889705552142714,-1.0043480817990196,-1.6861187083018887,1.9785811268310807,-0.10791096343885698,-0.3854799780541281,-0.7354805845176952,-0.12626262173740044,-0.05965467916393904,-0.7913045900178254,-0.5817624988627189,-1.0349694178627413,-0.34436023438827046,-0.8192045007437678,-0.5619371800261158,-1.015834101954313,-0.273121853779337,-0.7310466436367344,-0.38963702014775436,-0.6234158739746024,-0.49982394730453555,undefined,1486924648361
903d185fccf839df,-0.564189289901714,-0.4466085698181011,1.2634950989644576,1.233515637587557,-0.9931778185242087,-1.6928991236202247,1.9207490596770616,-0.5069768701015173,-0.3562330423827377,-0.5952763427427537,-0.04471170372537104,-0.08411080468607926,-0.865286597593583,-0.6197217111895856,-1.048653638622035,-0.31405112554343234,-0.827747500895578,-0.5629947818084868,-1.0093340645825923,-0.344093288639337,-0.7392623365342709,-0.3938593508215803,-0.6456899918025378,-0.4977839810309187,undefined,1486924649849
903d185fccf839df,-0.49904659587475414,-0.47772042317451935,1.149291544906469,1.162367474831229,-1.069271406251069,-1.741358945362478,1.9391445563794616,-0.4969042125708372,-0.3625989843653115,-0.905676377098626,-0.05699448045490715,-0.0753827258959096,-0.8304715352049912,-0.6169442233263503,-1.0433904733935835,-0.5322767940204315,-0.8886934428046587,-0.5632037682466843,-1.0121747701288444,-0.4526369319229794,-0.7596883033095254,-0.40844273402084397,-0.6479539437964095,-0.4890234529789794,undefined,1486924651364
903d185fccf839df,-0.4158856254547604,-0.5323128472278007,0.8079551253969123,0.6903347067841642,-1.1125330480548834,-1.7620379319404802,1.8688945394622356,-1.0220586056571346,-0.3050151842950045,-0.8277536201076064,0.0018929333468356547,-0.027795127390243674,-0.8826941287878788,-0.6234250369744158,-1.0507588988236287,-0.6110805052817321,-0.898867409423428,-0.5805560339836415,-1.0157571372059473,-0.5095495867770975,-0.7757602023894733,-0.4281931401609289,-0.663305763722768,-0.489333210741867,undefined,1486924652869
903d185fccf839df,-0.4158856254547604,-0.5346608487643015,1.0025488041182071,0.9589763689206898,-1.0820770968293802,-1.7860314248223756,1.907991867885849,-0.7820529328032608,-0.34216177594147257,-0.7092261625957611,0.00853702182006189,0.08214087510690589,-0.8739903631907309,-0.6521258959868835,-1.072864197200466,-0.6312865590018099,-0.9881691405270072,-0.6298959983513756,-1.0586126036726684,-0.5738534949473276,-0.830325610576476,-0.4469831416883218,-0.6301554800186647,-0.5008427708865789,undefined,1486924654353
903d185fccf839df,-0.36321717188067637,-0.5193984880411379,1.290292061322509,1.1330823606022766,-1.068602833464923,-1.8514830469982217,1.9152369764281933,-0.795040893757201,-0.3431624143344676,-0.602446566542604,0.10589338033565536,0.0367296437952555,-0.5824142156862745,-0.6660133871061583,-1.0423378616983712,-0.6232041770843889,-0.9663726721930813,-0.6450317352961454,-1.0444790457201316,-0.5728371980998275,-0.8334932046164234,-0.4532132234162478,-0.6277115862791731,-0.5038424016794893,undefined,1486924655854
903d185fccf839df,-0.38816544575396966,-0.6814147736626025,2.1318287029326335,2.1314289349185915,-0.9910281052044815,-1.8940102974089288,1.9611481376726139,-0.513852192714882,-0.25755770374858766,-0.7087495472769144,0.29609042305242994,0.09753525183589984,-0.678155637254902,-0.6400900418584748,-1.0107588666465441,-0.5545035068154879,-0.946541245673225,-0.6472166016233689,-1.026280340593192,-0.521945335792152,-0.820683054437621,-0.4482902832446044,-0.6338299943873221,-0.5096956665134819,undefined,1486924657353
903d185fccf839df,-0.5156786691898189,-0.6591082183479859,2.034213175837409,2.0869877817547633,-1.100632493454561,-1.9155394553641378,1.9087492549497052,-0.9190231734698051,-0.2042034282151237,-0.6938811843429051,0.33330687948053367,0.021596113198212735,-0.7651932932263815,-0.6595325605073183,-1.0012851773337883,-0.6090599027361965,-0.9447553952675307,-0.6590528733453412,-1.0376361644808785,-0.49898625434524124,-0.8280208000104756,-0.4360477578784965,-0.6150639711526137,-0.5109144591341288,undefined,1486924658853
903d185fccf839df,-0.5323108460211128,-0.6520640529845254,1.594623345489575,1.6925111386849383,-1.162819818513341,-1.9078413195611101,1.961653069889091,-0.5981012819717564,-0.22344023085010578,-0.672447952151885,0.4109382602301392,0.003257163832225881,-0.8043602384135473,-0.5826883367843138,-0.9918114622532143,-0.5524829042699523,-0.9042528750258709,-0.6404403510746697,-1.0349004113241076,-0.46822016045125925,-0.8158113671035981,-0.4310080940721124,-0.5885582968995652,-0.5154655803765662,undefined,1486924660358
903d185fccf839df,-0.6570521808821694,-0.6438458137828337,1.3502648234691395,1.3596748962965002,-1.1952711912313345,-1.926696510944957,1.9270658654046093,-0.8577437577705548,-0.19149730724381925,-0.6786860929574278,0.32852120401015994,-0.0023389734863063544,-0.8261196524064172,-0.5762075101854738,-0.9981272796691641,-0.5504622593273343,-0.8993444561884086,-0.6388127850478799,-1.0363067701940956,-0.48261770672814025,-0.816961467647497,-0.42381793151509856,-0.6023537530550589,-0.5192341149162436,undefined,1486924661880
903d185fccf839df,-0.2966883782919765,-0.6919811020847721,1.4325683452246547,1.4102681720566528,-0.9764635576138578,-1.9139276215898062,2.0008029880968463,-0.32012051810283254,-0.23944278065738664,-0.3925048319538261,0.3563296806729062,-0.028883597156585814,-0.5388953877005348,-0.5576907906059014,-1.011811496747341,-0.4393288649403815,-0.8236384957081533,-0.628097444057826,-1.04736872856938,-0.44359804394790364,-0.8075797255201176,-0.40665173251333286,-0.6075876113301218,-0.5267420893629414,undefined,1486924663385
903d185fccf839df,-0.2953023994991704,-0.7424644211512038,1.473401037162411,1.4556123945243318,-0.8743677285199433,-1.9331950883437543,2.039229708780816,-0.06811760805427144,-0.17402633858170902,-0.309863610268934,0.46158662387979854,-0.0029615838037714164,-0.5388953877005348,-0.5530616528010257,-1.0654957717704208,-0.4595349751899023,-0.8275373047220416,-0.6486921769299246,-1.0605227323935928,-0.47163861345561153,-0.8293025425630658,-0.4079752275375342,-0.5858287778948831,-0.5094779390264057,undefined,1486924664853
903d185fccf839df,-0.25926601924015114,-0.7448124811436894,1.8198415431641874,1.8502419465439726,-0.8883871330012243,-1.9269806780937464,2.0229354203320207,-0.16406262684488615,-0.2143573226315414,-0.41636807768847256,0.4257272672809258,-0.030848684549924166,-0.6650999888591801,-0.5410258569511024,-1.0770747360092376,-0.5241943414412067,-0.8408898422828484,-0.6524792774040317,-1.0721374383081845,-0.4721775602713017,-0.8336479723173208,-0.4254849012918387,-0.5761046154957689,-0.5176565040371514,undefined,1486924666380
903d185fccf839df,-0.4824144017907554,-0.5874923155071958,0.8960006173876998,0.8074267571490625,-1.147154702459893,-1.8628311017048422,1.9475125920483045,-0.6573800471523049,-0.18186994515246355,-0.5133213204940786,0.3529135422121832,0.01740996908984709,-0.678155637254902,-0.5567649980120176,-1.0823378975565725,-0.40093731764867935,-0.840717650984508,-0.6731943362115376,-1.0633634378052697,-0.42002302411772435,-0.8305242973352559,-0.4300699141433467,-0.5982538855749815,-0.5141828197053193,undefined,1486924667851
903d185fccf839df,-0.5004325746675602,-0.5199855322672515,0.4685333736643115,0.43470716215753763,-1.2488493879749438,-1.8465124515605986,1.9317100920362775,-0.778120380779719,-0.17316470348140336,-0.6035040965597802,0.2987535387674364,-0.22049550341601987,-0.5780623328877006,-0.6336091958334731,-1.0876010554227904,-0.3564839061909273,-0.8825377444405518,-0.7044537451401044,-1.061572254171904,-0.34785050993403477,-0.8326558842396099,-0.43016637937036944,-0.6165714503778637,-0.5127096959943261,undefined,1486924669371
903d185fccf839df,-0.5323108460211128,-0.5223335922597371,0.4060080599976725,0.3930981913725163,-1.1226233188641457,-1.8548185178961525,1.9411774023132733,-0.7092934746209076,-0.23087874298229286,-0.7566487214549911,0.3624067501938456,-0.2057936589641046,0.7840769830659537,-0.7067500613947112,-1.1149695153469623,-0.34031904342956,-0.9215275147281823,-0.7521724755388596,-1.0809254326897693,-0.3383650686430317,-0.8612036338125066,-0.4484576560388839,-0.6008577651753527,-0.5138228364379029,undefined,1486924670844
903d185fccf839df,-0.5531011145051685,-0.6596952187321111,0.6522804873842157,0.7120564205445811,-1.1511764113622884,-1.9501566071485175,1.9909754078393533,-0.4864198439894278,-0.19748136524149015,-0.6358824690207012,0.39494338838081344,-0.3357206311353346,0.11823891488413549,-0.7539676011344277,-1.0886536965669378,0.03551406170240114,-0.8932339162244003,-0.8053628691530746,-1.0732849155121738,0.05548096955389016,-0.7981327904024589,-0.45310703529232016,-0.6209445116809834,-0.469602776839589,undefined,1486924672357
903d185fccf839df,-0.5974535400480726,-0.4953308438901686,0.9578877931743366,0.9814464925752355,-1.0952119357865047,-1.8956524091480127,2.0104543751886013,-0.2871175524796804,-0.18139315590102784,-0.6480867577005767,0.44543884220008756,-0.34541159818431505,0.30101799242424243,-0.7734101068324967,-1.0949694992584202,0.21534818288769808,-0.8674409285485577,-0.8446904486422289,-1.079155240259783,0.1431443196007602,-0.8016732264926636,-0.46426833014494573,-0.6037781375263174,-0.46733965099490155,undefined,1486924673857
903d185fccf839df,-0.365989181224403,-0.4201928802886425,1.0733681312662284,1.104816313613989,-1.0354726058026664,-1.8999941123919648,1.9639699167891058,-0.5797714233226632,-0.15459523505706246,-0.48051205009775777,0.46052280192637907,-0.25877535320593587,0.731854389483066,-0.8030367908157847,-1.0812852637746588,0.21332753794508016,-0.8737520046607485,-0.8794393096865287,-1.0679953261590844,0.18564402927483267,-0.8033582457592578,-0.465004287470267,-0.5967207138591293,-0.44548136051616255,undefined,1486924675352
903d185fccf839df,-0.33411084086003096,-0.45130471903106456,1.4229980559832682,1.5112826095807195,-0.9007505468610314,-1.875115509272326,1.927005358450749,-0.7606408089958934,-0.3013286188780126,-0.8552102403344495,0.5740595883449381,-0.3352642047502908,0.02684937611408201,-0.7724842818616764,-1.0633905078877102,0.2880900441153096,-0.8374834137066788,-0.8718271118403101,-1.0507481870544564,0.2640837097051007,-0.7769860213604433,-0.46364848911548157,-0.5707879367694112,-0.45466591355213326,undefined,1486924676849
903d185fccf839df,-0.3632171546279715,-0.5951235104827738,1.547410545436544,1.654421255660844,-0.875838585725103,-1.920456480575755,1.8905141762585875,-1.0297667660093381,-0.2872346440859798,-0.8966207701559182,0.5970461966622695,-0.2177300631560123,0.005089962121212133,-0.7715584309893071,-1.0444431034943802,0.37497619382347425,-0.8415771059640078,-0.8663681143848616,-1.0451017606096902,0.2839015109465064,-0.7691976965078108,-0.47084513474104267,-0.5653855745532593,-0.4673073762417598,undefined,1486924678356
903d185fccf839df,-0.4131137023745581,-0.638562664185745,1.477867239911578,1.6259087259994693,-0.9753012794599725,-1.9046968473998311,1.8741304755395503,-1.1449416228165377,-0.2672285159513706,-0.9032968460177344,0.6356230008126768,-0.1784667581270553,-0.6172292780748664,-0.7919267875597453,-1.0665484018712175,0.08198796264680266,-0.9023238214988744,-0.8674700469335378,-1.0585146471398021,0.16487152852176162,-0.7988871351650834,-0.47454748506790967,-0.5754052920965345,-0.4864294494552866,undefined,1486924679921
903d185fccf839df,-0.4144996466619543,-0.5552064467685309,1.4147040425018862,1.4176698639813112,-0.97805784683443,-1.874307262180543,1.8661621699971815,-1.1938675318857388,-0.21491021774521832,-0.5597847269682177,0.6506205687613822,-0.12635940505855917,-0.5650066844919787,-0.748412599506408,-1.048653638622035,0.19716268931607367,-0.8488549221530812,-0.8433098671254141,-1.0439053049098779,0.29899199080905775,-0.7533790229161985,-0.46942860503317246,-0.522518126724071,-0.45335173574532195,undefined,1486924681419
903d185fccf839df,-0.5544870587925648,-0.48359055854173705,1.391735653286898,1.3707504699048099,-1.062523993499007,-1.8673125564056678,1.8505279784543494,-1.305653244207541,-0.23624320571964522,-0.48294638030655235,0.5966550258642073,-0.27161305908799427,-0.3996351381461676,-0.727118430915924,-1.0507589061858624,0.03551406170240114,-0.8169034673646857,-0.8146786288374384,-1.0431566465497994,0.39569423055417885,-0.7246965525850212,-0.4691640762081229,-0.5414995752740983,-0.4543399358194303,undefined,1486924682855
903d185fccf839df,-0.4477640003245421,-0.4912217389033189,1.4746773129224153,1.3897384712148086,-1.0832291020715574,-1.8587316393535913,1.9513363357121416,-0.6456295691823345,-0.2514694123618834,-0.40769403600124815,0.5959037453593621,-0.3144858996568253,0.8754665218360071,-0.7289700938083391,-1.0570747162395786,0.04965829365351123,-0.8184906585610365,-0.7988462697325451,-1.0541976142294203,0.38764084199721843,-0.723240921544361,-0.4681734939524881,-0.5588075611432521,-0.4492680855659491,undefined,1486924684392
903d185fccf839df,-0.44499190471729116,-0.568707806339319,1.7196734645489544,1.6932013070656806,-1.1272518833836787,-1.8487298851164897,1.9122127123964578,-0.8930263723788482,-0.25789388492160414,-0.4639318243775577,0.5885966662437869,-0.33954389377596633,0.7927807486631017,-0.6956400969909955,-1.0454957520007615,-0.10794918539853314,-0.8846849946842313,-0.7784478593546587,-1.0444930374027768,0.2958045116997015,-0.7304483084692025,-0.47556193664507035,-0.5776871271489717,-0.4638896725063572,undefined,1486924685859
903d185fccf839df,-0.32163668667067946,-0.6667393987095678,1.6201440320876224,1.6261771598041566,-1.0531331525730077,-1.9008256498699252,1.9465921718350077,-0.683085465263533,-0.2961944153395705,-0.34627813315083683,0.408430797130691,-0.35736660243697094,-0.04713263146167557,-0.6771234097883595,-1.0444431182188478,-0.05743393803945269,-0.8314422069409153,-0.7430910348259261,-1.0250628941181943,0.2842402788599072,-0.7091662533672786,-0.46459590370074466,-0.5940534773971402,-0.4693068134070508,undefined,1486924687397
903d185fccf839df,-0.24817784384360564,-0.6761316679075023,1.2494588611108537,1.3046257368924015,-0.9328110632836133,-1.916506088866233,1.9036973967346718,-0.9060827153647983,-0.3707338181157905,-0.5277027991297099,0.26172299408508215,-0.3150750564116428,0.12259079768270946,-0.6280542006808406,-0.9939167114114572,-0.1039079803074619,-0.8719895972546426,-0.681636148394988,-0.9993915949871974,0.20994277773723835,-0.6847914242524459,-0.47130142655601964,-0.6129817341191166,-0.4793066371966579,undefined,1486924688842
903d185fccf839df,-0.4962745002675032,-0.6831758771129512,1.286463742316395,1.330119460916263,-0.926238505202638,-1.903008148521106,1.9113922126682783,-0.8096955352235345,-0.3890083694802304,-0.5957243612297644,0.20423471792541203,-0.32584283629466054,0.9494485294117647,-0.5780591730778888,-0.9791798752758342,-0.2877832217896655,-0.9455229194903713,-0.6448734101650175,-0.9921568930851318,-0.14271242391230848,-0.7391289774259581,-0.4800694503623052,-0.5833059116846506,-0.5142303285968485,undefined,1486924690358
903d185fccf839df,-0.45608011461924636,-0.6303444688260418,1.2379749206403092,1.3017616047879157,-0.8740591638084041,-1.8920630545884363,1.9509129336881685,-0.5084517381184641,-0.2977016276975298,-0.7264979122964336,0.23092320001469763,-0.1772216819700193,0.3097217580213904,-0.5354708099953718,-0.9581272143620275,-0.2635359629785165,-0.9666997649047827,-0.5998525143098881,-0.9815077465271029,-0.19480536571868365,-0.7233299959877034,-0.47839534366344555,-0.5663801319991005,-0.5307751461857037,undefined,1486924691848
903d185fccf839df,-0.4061835323672501,-0.5458141921845926,2.2485853167845296,2.1744888973002423,-0.8654808893615095,-1.8334430908587167,1.9521331624953002,-0.4099461662961243,-0.31138315414257334,-0.914209460913888,0.23483296341311638,-0.12782922593090357,-0.7390819964349377,-0.522509182699241,-0.9602324966503225,-0.29788629104678666,-0.914341629165119,-0.5641157112780454,-0.9822773958458787,-0.2331936904047483,-0.7113569554151409,-0.47201829579900034,-0.5514839757943298,-0.5367916695313278,undefined,1486924693410
903d185fccf839df,-0.2010533744515652,-0.49474388734803193,2.090358127251824,2.134348453540234,-0.9033116847614376,-1.8322155814334677,2.0040639375828753,-0.09463956905728815,-0.2882163931811388,-0.948874453809933,0.26573045804808043,0.007032263617917939,-0.9175091911764707,-0.5345449850245515,-0.9560219688849015,-0.30798930377446476,-0.9109107216459664,-0.5560538737995522,-0.9925277234315384,-0.24120088249453597,-0.7130512622137045,-0.4659225257687344,-0.5362155674028136,-0.5425099820957446,undefined,1486924694850
903d185fccf839df,-0.07631205684321342,-0.5704688805616756,2.1949919003423255,2.1523226153180364,-0.8654191724265616,-1.8450683219032094,2.051687106119738,0.18658083789778226,-0.28486775279388843,-0.6850466956826523,0.3666104659387347,0.13767731835932562,-0.5954698640819964,-0.5817625377150426,-0.9202324276620691,-0.36254575622461643,-0.8837337496231922,-0.5322863361173967,-0.9664086281046981,-0.247683628525528,-0.6987803589336279,-0.4599199203833264,-0.5204928076517291,-0.5525465604571755,undefined,1486924696371
903d185fccf839df,-0.17887721343822777,-0.6643913387170822,1.9302172864899607,2.0497307124226913,-0.7460948019335094,-1.891413193917385,2.0438371364956245,0.06845638881852568,-0.2882588457383428,-0.45340238735710175,0.419466591817705,0.10980558319682344,0.09212761809269164,-0.6039825183255723,-0.9423377260389063,-0.3281953998916248,-0.8484460890522029,-0.5300824710477278,-0.9652471578111397,-0.25706127972912085,-0.7034323227973883,-0.4356672386464315,-0.5390906569871886,-0.5592986386325142,undefined,1486924697839
903d185fccf839df,-0.07908408343964493,-0.6215392146262286,2.0590954704185047,2.1523541418087477,-0.46126327287850183,-1.9010841967445853,2.0714159089881194,0.3209668663818458,-0.24962803457594415,-0.13642047429163248,0.5215425121687587,0.14149706524457245,-0.5345435049019608,-0.5752816463623299,-0.8423375940605585,-0.3968960701605258,-0.8396875529769776,-0.5353958098296798,-0.8943764588814259,-0.07154080764602978,-0.6482725553607475,-0.462993458924675,-0.5254451109298363,-0.5673344970599417,undefined,1486924699323
903d185fccf839df,0.10802784984112057,-0.5687078209533152,2.2064766032237184,2.318167242186677,-0.4308587483277195,-1.92186333994346,2.010404416255444,-0.07757842378447345,-0.2922234246275319,-0.07996279829448921,0.442476567665402,0.09496332819782916,-0.678155637254902,-0.5243608067393324,-0.6854953114812081,-0.2716184014253805,-0.6700785328013935,-0.4835416684387276,-0.7526140753300906,0.05350996968106192,-0.5507697323762801,-0.4440718632241808,-0.45733986273809374,-0.3693684617680224,undefined,1486924700851
903d185fccf839df,0.289595867950662,-0.43134613602495653,2.3417348952675368,2.160092033639069,-0.24705334818383168,-1.8662061672956183,1.9642355452705653,-0.18392872151940148,-0.47440720344852727,-0.9830524592589609,0.6306234164331056,0.15308410186641702,0.23573975044563283,-0.4521457596735272,-0.5918109969188101,-0.08370187005794111,-0.5803422404800633,-0.46909622523939626,-0.7020061428707907,0.15701832255576334,-0.5096732181058367,-0.41520380863492945,-0.44102218658640474,-0.26007998288542583,undefined,1486924702359
903d185fccf839df,0.13159014492160784,-0.4659800647561069,2.0673894838998867,1.9101955454777724,-0.36136858178851694,-1.8420612739800837,1.991472432837569,0.036415975395685245,-0.45131037387663026,-1.806148542041914,0.4347250105970688,0.1635509175169939,0.42287071078431376,-0.3891890141190228,-0.6265478785919106,-0.10996974554698645,-0.563865424745583,-0.4444040787215749,-0.6986756616458909,0.1833958582186342,-0.49443003623642906,-0.4213261893738963,-0.4094057459022611,-0.22902405095178055,undefined,1486924703847
903d185fccf839df,-0.1469987350522168,-0.5047231130881031,2.191163835473161,2.276851993564129,-0.4863809495436133,-1.821074830070523,1.9697607424447718,-0.17895059220469017,-0.22331387593179242,-1.2184809422137932,0.45151142552907864,-0.006690618666805093,0.12259079768270946,-0.392892365805402,-0.560231976099165,-0.06147517139524546,-0.5775159050156111,-0.44923611547826486,-0.6933510885503883,0.15259896860498054,-0.4982223545512708,-0.4031580212785802,-0.44092509250934,-0.20953772885686195,undefined,1486924705351
903d185fccf839df,-0.03473172690756032,-0.524094608026109,2.497409787417183,2.502040726597646,-0.5833956487736895,-1.827852916338553,1.9782103151150103,-0.16381438081371252,-0.225584265444272,-1.1529510229247355,0.3901764739403082,-0.13899656634316263,-0.0775958110516934,-0.37344991191043125,-0.7949691143667273,0.043596443619822074,-0.5397662675286427,-0.46997017326629276,-0.7800065919492633,0.05306341550354658,-0.5620871744116291,-0.35091235697249396,-0.4089327441480204,-0.1385180943604302,undefined,1486924706843
903d185fccf839df,0.002690701155084458,-0.5405310279735078,2.651808149669875,2.608789320791082,-0.6004287629853716,-1.8511616125705612,2.019485130757979,0.04102235252695493,-0.17151219266493142,-1.0104013158331817,0.3929395197733134,-0.0607723367680581,-0.7477857620320856,-0.4197416007777784,-0.7770743658420125,-0.18473225171721586,-0.6858636695612463,-0.49382003822519105,-0.8575172626025277,-0.17632722637709533,-0.6296423042634031,-0.438675107832182,-0.4964008550381495,-0.4529777243563597,undefined,1486924708351
903d185fccf839df,-0.1414547163647635,-0.6191911254057507,2.422761887126098,2.4301003464360638,-0.6380126988796532,-1.8466056202128405,1.9914014380955074,-0.18634495141204513,-0.27111479247736314,-0.8117249766301996,0.405665627057059,0.007596881758792393,-0.7564895276292335,-0.42807410321980793,-0.7812848936074336,-0.18877344267592633,-0.7420209165309735,-0.4924141246070034,-0.8797811151057334,-0.19261878432480375,-0.6396591226564277,-0.4502302695395349,-0.49887424613259757,-0.4826041540460703,undefined,1486924709887
903d185fccf839df,-0.3285667186563485,-0.6015807046901014,2.839383582395893,2.914084128560319,-0.8076546943175998,-1.8456296690960798,1.9870517389765499,-0.2431063870898737,-0.3266351921011126,-0.6240062762410155,0.29382941867603135,0.00048113632438669655,-0.8174158868092692,-0.44196159433908266,-0.7928638688896013,-0.26757716806958776,-0.7861613925680216,-0.49811377446478616,-0.8959297541931442,-0.2342869751176917,-0.6520622463184167,-0.4533469393850552,-0.5395406995944895,-0.5132583335189713,undefined,1486924711352
903d185fccf839df,-0.4131136678691483,-0.5287907572390724,2.900632874439477,2.928172452206117,-0.8429757742907483,-1.8584125344238267,1.9725983208087206,-0.3044441415477313,-0.4048215237847906,-0.8556375873643725,0.2185204002697002,-0.03033411222812083,-0.7086188168449198,-0.44103579526981146,-0.7697059551364348,-0.2898038667322834,-0.836666682213285,-0.4734469569699513,-0.8940476129848773,-0.23279332705369832,-0.6345918265866043,-0.49118006141052006,-0.5102045356485174,-0.5327837368641783,undefined,1486924712846
903d185fccf839df,-0.32995273195456426,-0.5827961955222247,2.653084425429879,2.510685172451907,-0.8184032474447273,-1.8868595336053806,1.9095645039748925,-0.7310949528992525,-0.3575789948159743,-0.8319532522277225,0.13703599631722768,-0.04510236048408975,-0.7695451760249554,-0.4623299250079718,-0.7581269872165008,-0.3847724831520336,-0.8714008566887634,-0.47464388371808164,-0.8832375388713599,-0.1653173412889647,-0.6172382713141907,-0.5313085809571829,-0.5215776788615065,-0.5688039333009876,undefined,1486924714359
903d185fccf839df,0.030411070635628708,-0.5857312705128316,2.2466711572814724,2.187358569603347,-0.463752413446302,-1.8865776968981407,1.995493427735887,-0.034375321364199546,-0.24655391250593497,-0.12053776307738406,0.2734509345142149,0.018015525515095884,-0.7956564728163993,-0.4678849266359915,-0.803390184622037,-0.38477239835786897,-0.8437168329711683,-0.43549995974506184,-0.8812574409161296,-0.10101343307834773,-0.5931708890337283,-0.505542299323255,-0.5262726420332284,-0.542222876794899,undefined,1486924715855
903d185fccf839df,0.5376923173421011,-0.4589359140066426,2.0992905327501576,2.1514898992586957,-0.008785187350588879,-1.8455597952039853,1.9805377181540231,0.15099451429158678,-0.23826293438337623,0.18984592086727686,0.2892186302863058,0.0869384352975217,-0.8609347147950089,-0.4067798957770003,-0.8065480822866613,-0.38275183820941566,-0.8098510923813238,-0.3809796463529612,-0.8556701036257599,-0.010809343127277032,-0.5411393630949828,-0.4952331653060387,-0.47773485734200266,-0.45753562667418674,undefined,1486924717358
903d185fccf839df,0.5737287666119399,-0.5123542788356888,2.7845149067414825,2.9665894407405395,-0.04349941560161463,-1.8459021925703247,1.9696108664309426,0.07234589905262583,-0.2414173806122709,0.011965331377114143,0.3751355497510843,0.05154642331240194,-0.6041736296791445,-0.39659573044255575,-0.7360217035641311,-0.2635359629785165,-0.718041944044388,-0.36998565514348225,-0.7892143944573814,0.10172249437677307,-0.5006321785282569,-0.47154464442474786,-0.4275234275462549,-0.4432251277966133,undefined,1486924718852
903d185fccf839df,0.1537663921984696,-0.5628376563581052,2.6320301957179484,2.747623989512972,-0.36692286867802165,-1.8578278968221273,1.9077052234983987,-0.4930564496672216,-0.4027032074276914,-0.6905172949284176,0.3041812583553149,-0.03554774892678908,-0.6607481060606061,-0.3864115521573366,-0.7444427370082719,-0.16654678641031298,-0.7030440232957926,-0.3950704457140317,-0.7909566005124834,0.09584028949521119,-0.5185267597387399,-0.4550310184829961,-0.39984942425702447,-0.4356270336755476,undefined,1486924720371
903d185fccf839df,-0.3576729979188793,-0.5692947921094481,2.5963013361354617,2.5552933454774545,-0.8401575034368478,-1.8871600055763817,1.9676385036198711,-0.4044260099103892,-0.3436070077128353,-1.289711583919626,0.35277519606173563,-0.06756110070328586,-0.47361714572192515,-0.35122986654602883,-0.7402322239673185,-0.12209344561436478,-0.6668088797658235,-0.4160578219578486,-0.7952946236046958,0.09878139363897435,-0.5263347928936001,-0.4252254706219264,-0.3963865312472702,-0.41405079115188925,undefined,1486924721845
903d185fccf839df,-0.31332060688138497,-0.5358349079885367,2.0354889433235144,2.0660484937557757,-0.8365163654168997,-1.8926034378002135,2.0185673303966882,-0.1093816847078788,-0.32615235684823335,-0.9746241529053135,0.3554276743143949,-0.06951993678790908,-0.7086188168449198,-0.38455986336337245,-0.8097059652268179,-0.09986669042222605,-0.6812229846740837,-0.46085706528256937,-0.8414525849030816,0.03518581499587095,-0.5807088375180057,-0.36536496827038206,-0.37722540876899224,-0.3821965837096888,undefined,1486924723358
903d185fccf839df,-0.24540588625799362,-0.6321054699784174,1.7770944375864244,1.8404458709154687,-0.7534902196745774,-1.9202561647218603,1.9978654892477794,-0.2705526744607477,-0.33309453679729595,-0.8040951268801343,0.33737994303654,-0.04500907854073762,-0.8391753008021391,-0.4854757694416454,-0.8781271058344557,-0.16856743135293092,-0.7726764024485361,-0.5372323657550832,-0.8888070012467542,-0.05746662904661613,-0.6491141193984957,-0.3833318863482411,-0.47210750565137893,-0.4430303209437508,undefined,1486924724867
903d185fccf839df,-0.2315457532758361,-0.5528583721620492,1.6813928158573077,1.6452933647199819,-0.6962605990079277,-1.8597634920267458,1.9658738955443076,-0.3661942298147381,-0.335944285548737,-0.5800966948975043,0.17406784091530553,-0.058719993844460895,-0.678155637254902,-0.48917913407879915,-0.9012850416743237,-0.20897953879308637,-0.8079585301114083,-0.5332172797459866,-0.9313616050843437,-0.035185078364678844,-0.6583852536355596,-0.3925864214075578,-0.49082240776039177,-0.42881340349757613,undefined,1486924726337
903d185fccf839df,-0.24817794735983487,-0.4078655214861049,1.06060766089873,1.2764518202485338,-0.8147209712618299,-1.7518288743008092,1.9042575490625155,-0.6249615116961258,-0.41304493050841057,-0.8192562576234357,-0.04040402334235609,-0.12885483939407388,-0.26907865418894833,-0.5076958018552733,-0.9654956471543067,-0.17664981327035187,-0.7748721308748006,-0.5451358794976883,-0.9764280630540476,-0.06068490262364901,-0.680138708682362,-0.3928547511032208,-0.4631755549989218,-0.4414678847299693,undefined,1486924727865
903d185fccf839df,-0.27728419211695593,-0.3996472530564208,1.4536230832104844,1.6079461101683388,-0.8718888780943393,-1.6684141593964392,1.8515246823472455,-0.8433072522223305,-0.3948422048972337,-0.8629089058728363,-0.10027938771053371,-0.11936229014192468,-0.5301916221033868,-0.524360819690107,-1.009706214459046,-0.27768020906198737,-0.8115411048054129,-0.5583084032103834,-0.9884136001408491,-0.20175006157247702,-0.7186389025328783,-0.37895629247127416,-0.45315570814079553,-0.43759218324899285,undefined,1486924729386
903d185fccf839df,-0.3881653249850356,-0.2980936291534284,1.396201856036065,1.5191977592703507,-0.9933526766521955,-1.68873910169306,1.911352772948976,-0.49809590775974233,-0.4355008333173884,-0.8737544866137718,-0.21051415888262315,0.006058984468823565,-0.8130640040106952,-0.4799207937151748,-1.0191799221773863,-0.22312382727363952,-0.7169937507271428,-0.5425457061703517,-1.0040864566881178,-0.2122671991391753,-0.7157279569196713,-0.3756895057080046,-0.4575982791527144,-0.44882129795804826,undefined,1486924730875
903d185fccf839df,-0.1234366124987782,-0.34505485823113174,1.7617821781097658,1.8510410367265369,-0.7968032958031049,-1.7430080478612875,1.9302426590847583,-0.40882176446493035,-0.45874628557121294,-1.0304688319753492,-0.006145069780888183,0.07164879055413081,-0.5301916221033868,-0.46695915346826944,-1.0233904793917425,-0.23726805922474964,-0.6695666266702033,-0.5301268037684759,-0.9763930787488647,-0.23382502353132806,-0.7071098004246034,-0.38178321856251446,-0.42546347984624744,-0.45558172856786794,undefined,1486924732365
903d185fccf839df,-0.17194707793632955,-0.49239573967156935,1.7943211107030896,1.9509419773629273,-0.6416949835827698,-1.7916379041765298,1.9986518041497356,-0.012709108821395103,-0.39277588783165096,-0.7811942589441215,0.1355140584580494,0.06829608425762423,-0.6650999888591801,-0.54565501418214,-1.0381273302518332,-0.3059687012289291,-0.692629150574584,-0.5643690314003708,-0.9926326767691641,-0.29526482226209133,-0.7378443861971855,-0.3814599020036837,-0.4351254503503672,-0.4887789989926758,undefined,1486924733847
903d185fccf839df,0.1662405463878211,-0.58925336050156,2.2626215546381334,2.2359814215503446,-0.4505353023403673,-1.8399952398371635,1.9383161646220868,-0.435751479274665,-0.3189505591600603,-0.7447369869760478,0.3285289922479952,0.06723449918055939,-0.9914911987522282,-0.5595424793998656,-1.0012851515659702,-0.303948126948115,-0.7117351241177159,-0.5603602785896382,-0.9710894961899823,-0.26585378966919687,-0.7229280160201494,-0.4007912230368234,-0.46922406891438007,-0.4752374233619327,undefined,1486924735370
903d185fccf839df,0.005462762256925697,-0.5452272064144635,2.5280343063705,2.6177803160901885,-0.5443922861019463,-1.8611959750467986,1.9496690371736247,-0.4083442328684465,-0.2749352978182338,-0.7399438661453893,0.3611696128644143,0.014412015794224218,-1.0001949643493762,-0.5428775004173556,-0.9539166865966066,-0.2413092501834601,-0.7461108314078689,-0.5355604713427546,-0.95019701900398,-0.17574208565207108,-0.6901985136361246,-0.4042461813901673,-0.47421999075322524,-0.47588909236791743,undefined,1486924736880
903d185fccf839df,-0.025029530303820855,-0.5364219522146504,2.2626215546381334,2.3008047891289536,-0.5571568340521456,-1.8651952785623311,1.9202572864293594,-0.6034473993093099,-0.26637648945464976,-0.6150356312009974,0.3274724512597596,0.05996348476636057,-0.8957497771836007,-0.5391741746325255,-0.9044429393389479,-0.2716184014253805,-0.8040247632371277,-0.5270679928249421,-0.9056343305671255,-0.09317561997093715,-0.6571146264695304,-0.4178414102188312,-0.47757415703300476,-0.48653984454763655,undefined,1486924738348
903d185fccf839df,-0.20798345819534883,-0.5147023534421705,2.1681954462581725,2.191898166916372,-0.6908708927835159,-1.8880218231655337,1.9375061793939141,-0.5452092001955836,-0.30931386399486727,-1.1523557522765098,0.28446340532555703,0.0056763192792903035,-0.8174158868092692,-0.6012050175115624,-0.9170745447219124,-0.19483530684197625,-0.8592689271508197,-0.5486316655315518,-0.9300671934572542,-0.029888007019267776,-0.6670596196814165,-0.41300219801234617,-0.4763325719248684,-0.49004221008450133,undefined,1486924739881
903d185fccf839df,-0.47964234068891415,-0.5458141921845926,1.9665837756785502,1.9386597601200923,-0.7901895802681558,-1.8949117130446802,2.0096207217292554,-0.15078714041967503,-0.2781077059164722,-0.9972760462246173,0.30333219963544344,0.018273452779145077,-0.9088054255793226,-0.5993533416683728,-0.864442885075162,-0.19685592351987266,-0.866249029351864,-0.5623741530900258,-0.90986040389621,-0.07431252203756814,-0.676702375542973,-0.4020179463693744,-0.5110515704303829,-0.48828301481394304,undefined,1486924741402
903d185fccf839df,-0.38400731959579804,-0.5452271771864712,1.9417012269605052,1.9894608147144486,-0.8000947118956022,-1.8905863147139983,1.9611744388498158,-0.4605337996332391,-0.23239159144428392,-1.0239105133904483,0.30956401812907103,-0.023509588328587402,-0.9175091911764707,-0.5576908165074506,-0.848653426200976,-0.10188733536484398,-0.8716834599122447,-0.5249907857208078,-0.8858613429378798,-0.09178975737678181,-0.6487926167037696,-0.3960714345427505,-0.5656451802915087,-0.5096748716761283,undefined,1486924742861
903d185fccf839df,-0.2856002719062504,-0.5540324021582921,1.9857246082982725,1.994682690041094,-0.6800606301093651,-1.9037371994150405,2.0571623569310487,0.1926700701761083,-0.24162424264950683,-0.7310018010681226,0.3211146389858368,-0.012021157188260051,-0.9218610739750446,-0.5845400126275033,-0.8170744127435646,-0.09986677521639066,-0.8477873193371265,-0.5171442681778559,-0.8654516458308266,-0.06436512605040783,-0.6328684512393135,-0.40493970847639393,-0.5765755794513325,-0.487141818938075,undefined,1486924745160
903d185fccf839df,-0.2578800059419354,-0.5552064613825272,2.0795120705243324,2.0480246556668043,-0.6366858475086146,-1.9079834028412643,2.0105963835281164,-0.09361390944995097,-0.22884157260442792,-0.7900648967338085,0.3293076098099395,-0.045565417236197815,-0.9175091911764707,-0.5465808132514112,-0.8160217826427678,-0.14432011601233888,-0.8315542751372536,-0.5041554001806151,-0.8661233398646165,-0.037787409465901076,-0.6235618420090093,-0.4036949891665829,-0.5582731660164792,-0.49296868948121686,undefined,1486924745870
903d185fccf839df,-0.17887717893281804,-0.6467808887734406,2.2677253869934035,2.2216471193703113,-0.6749589245363257,-1.9469608916764247,2.004092877467476,-0.17746009993033338,-0.21060479166218318,-0.5602929571344517,0.30456182504224943,-0.008682590811749812,-0.9436204879679144,-0.5465808391529603,-0.7844428059965254,-0.1766498415350734,-0.7803164849349895,-0.5071508814825182,-0.8333712682793488,-0.039619824837491685,-0.6160397022661663,-0.39909424471277644,-0.5442067116579627,-0.47626530703739,undefined,1486924747364
903d185fccf839df,-0.1567008626451368,-0.585144240900714,2.4706130791960805,2.3100057418791016,-0.5505739881695835,-1.9390857349758108,1.958110720433473,-0.41364584360720913,-0.1590860401318559,-0.4454350416091263,0.19406995101818522,-0.0924794640879263,-0.8087121212121212,-0.4836241195000049,-0.8128638997026111,-0.0938049251827015,-0.7475915147310972,-0.4867334720908898,-0.8272140747690435,-0.05783618784671957,-0.6055026256817319,-0.3888718180921362,-0.538003012347313,-0.4936160205013565,undefined,1486924748844
903d185fccf839df,-0.3008464181866237,-0.6943291474632615,2.3487526329889143,2.332328297558266,-0.6577200874995605,-1.9560752058607687,1.9451957435770069,-0.5756192107012555,-0.1781807456830979,-0.716251486941003,0.15654426784562436,-0.0496795721047503,-0.7173225824420678,-0.5058441648644073,-0.8002322869574128,-0.1039079379103796,-0.7677270308389849,-0.5021288593720861,-0.8104147312057332,-0.0882173216949916,-0.609197212947851,-0.38397935508767905,-0.5838908278980788,-0.500223071559416,undefined,1486924750391
903d185fccf839df,-0.15254292626671875,-0.7072435066499243,2.0673899921737857,2.135350928460016,-0.48808837342352296,-1.9407488113469866,1.894934887927477,-0.8289390747330486,-0.1492155824191619,-0.6669056189773662,0.09325878960572054,0.01183859879571155,-0.9175091911764707,-0.491956634892809,-0.8097059799512855,-0.2251444156868144,-0.8344835129212828,-0.49613156119468593,-0.8039356838751505,0.0054052262280235505,-0.5871437535062998,-0.4109282167202429,-0.6083856414726057,-0.5044836107045794,undefined,1486924751885
903d185fccf839df,-0.1913512986167598,-0.6978512228379936,2.358961060110303,2.420023447264644,-0.6622869372347056,-1.9532940942228674,1.8576468669056567,-1.126273005688603,-0.17424367695255716,-0.6788749166165193,0.0905925751462509,-0.026981464725085735,-0.9610280191622104,-0.5826883756366373,-0.8181270428443614,-0.24737111434951004,-0.8349727961884296,-0.5398795365831895,-0.8167608376982666,0.01703105267459299,-0.6125780933656765,-0.41713481912600564,-0.5842726715892478,-0.4911165979711491,undefined,1486924753375
903d185fccf839df,-0.1968953518096228,-0.6015806900761053,2.1943540165992728,2.2071567805986816,-0.6217304373669498,-1.9123134595697435,1.8634823942444758,-1.0134982373261765,-0.2301290927119102,-0.8772490568476159,0.20830117038355844,-0.03680488509306566,-0.9349167223707665,-0.604908330345618,-0.8297060034020616,-0.20897953879308637,-0.8295418580465006,-0.5483910124426712,-0.8396613994651827,-0.030765722744569797,-0.6325176592958195,-0.3889669389180619,-0.5704240519157893,-0.5043174643303683,undefined,1486924754854
903d185fccf839df,-0.32440871326711096,-0.6285833946036853,2.2128564572020433,2.200043364944414,-0.7909301547580462,-1.899523607060273,1.8294632267843813,-1.307225327400884,-0.23183046231381005,-0.7031450372140562,0.24985833250218514,-0.005120197425196824,-0.9610280191622104,-0.6002791536884186,-0.8381270515706699,-0.21706197723995038,-0.8486979839169089,-0.5504302200078114,-0.85709045470446,-0.046533731877778046,-0.6418506941915157,-0.376930312103657,-0.5957723128984307,-0.5080892204678595,undefined,1486924756364
903d185fccf839df,-0.4893443992710147,-0.6790667282841131,1.8912987540552613,1.965918161198736,-0.8747483047477829,-1.9193174823259531,1.9629416539452438,-0.5031886214235871,-0.26003883353732044,-0.6037165266111343,0.3405377791548335,-0.041193991844674635,-0.8870460115864528,-0.6326833384857165,-0.8854955459889686,-0.12411406229226116,-0.8715186692178436,-0.5845457870553287,-0.891094955840379,-0.12389552204224306,-0.6836879554640583,-0.39166994521202053,-0.5775347603628701,-0.5044304614771844,undefined,1486924757844
903d185fccf839df,-0.5420130426248522,-0.7360072415578723,1.8970404701535841,1.8329587166242038,-1.0308851845994251,-1.9417294214142367,2.0554477166925773,-0.008430379387750066,-0.23292630166316836,-0.6488262217229485,0.38064544162118263,0.06459236085889457,-0.8304715352049912,-0.6197217241403602,-0.9181271527360079,-0.1948352927096155,-0.824183389159568,-0.5928482746273663,-0.9211952374858418,-0.23907589395354184,-0.7167031981189779,-0.37747503463609344,-0.5363022333010008,-0.5133201287901894,undefined,1486924759360
903d185fccf839df,-0.5004325056567407,-0.7119395974069032,1.7311576591564484,1.7154697230396014,-0.9490418928262168,-1.9573819088495177,2.0819929743288164,0.19458670409901418,-0.17795138964041515,-0.7881327482830632,0.33392896624434937,0.0907688318886686,-0.3778757241532977,-0.6049083562471671,-0.9570745695367632,-0.2413092925805424,-0.8524169458253649,-0.603728272424329,-0.9666954988065024,-0.2999767451685749,-0.7503471861075469,-0.36746638228489026,-0.5147222336329949,-0.49508647101992403,undefined,1486924760845
903d185fccf839df,-0.46578213869593715,-0.6960901924576256,1.7445560132669995,1.7576026310490585,-0.9834784066790533,-1.9549408660314156,2.039369089411911,-0.0941254115743386,-0.1731185373030028,-0.7219136699217736,0.26351850875415744,0.09162409428333196,-0.4475058489304813,-0.6799008911762076,-0.9686535521811647,-0.3362778807355711,-0.8939136437263915,-0.6382428161581984,-0.9780093414680221,-0.41531110211321576,-0.7923554683699405,-0.40261176164115836,-0.5379694091947452,-0.5174261234927908,undefined,1486924762338
903d185fccf839df,-0.3216367211760892,-0.7101785816405313,1.690963105098694,1.7019776348399247,-0.9196762206255251,-1.9469445884094527,2.042364433985721,-0.019231459474934834,-0.1584877039379309,-0.7997567707517625,0.17316392847526504,0.06583791531788387,-0.8913978943850268,-0.7058242493746655,-1.001285188377139,-0.40295787779713266,-0.9798823702985603,-0.6623713330473517,-0.9998253981057059,-0.3997586718759085,-0.8108663778950913,-0.41769905933856627,-0.5438058446344387,-0.523861210608086,undefined,1486924763843
903d185fccf839df,-0.3493569526349945,-0.6866979524876835,1.7247775510411738,1.7450734572864606,-1.0305354655687287,-1.9517404920165573,2.053654196491741,0.011694172969789038,-0.1565837180965649,-0.5838523259974476,0.17353213679741647,-0.08564127067047157,-0.7129706996434938,-0.7224892542587246,-0.9865483007058795,-0.41508157786451094,-0.9800328528956543,-0.649591452684228,-0.9959841484205769,-0.35656603245292406,-0.7967665427208493,-0.436855733501697,-0.5213488155700137,-0.5222322166540391,undefined,1486924765355
903d185fccf839df,-0.6043837100553805,-0.7054824178135717,1.3783372991763472,1.333646221286666,-1.1709558053228872,-1.931452818312131,1.9960824845944711,-0.41459175014261684,-0.17866398847533543,-0.49877764275006153,0.17778803476575522,-0.04965366161187897,-0.8565828319964349,-0.7437834228492086,-0.9676009441670692,-0.4736791930086516,-1.0061977196030674,-0.6787419935053763,-0.9821444562067735,-0.4193608925520867,-0.8176371549996768,-0.4446609356116729,-0.5523413865017818,-0.5161364339474773,undefined,1486924766835
903d185fccf839df,-0.6362620504197526,-0.5921884354921669,0.7422398847411108,0.7874450743591445,-1.1829077839172324,-1.8929598117344262,1.930305780653017,-0.8329892347394506,-0.21762962907320235,-0.5991572147443384,0.17536220478114434,-0.15670716018066932,-0.49537655971479505,-0.7650776043904671,-1.0033904117675638,-0.4777204122320836,-1.0305598508604819,-0.7091337913205136,-1.0067382464260597,-0.4423969669531936,-0.8406630622396346,-0.45212355632138806,-0.6024384423186621,-0.510855087657051,undefined,1486924768339
903d185fccf839df,-0.4657821732013469,-0.5704688221056908,0.3498631085832573,0.3908003964935499,-1.0519400031823225,-1.8765806010588362,1.908807119529841,-0.939694397756185,-0.24317796939229697,-0.7620335787959707,0.35428832348746087,-0.16702956795828267,-0.016669451871657744,-0.7252667421219599,-0.980232505376631,-0.27161835902829823,-0.8274307558470319,-0.6905782650501754,-0.9964669284322384,-0.05905266591202628,-0.742395222506321,-0.44214923359827757,-0.5429599449006896,-0.4933219380530746,undefined,1486924769847
903d185fccf839df,-0.5586451331926218,-0.5645987013524694,0.4921391383484534,0.5247184032947293,-1.1033890627015062,-1.8749221831561296,1.923357819475389,-0.8298751266474244,-0.2807989958255124,-0.962914241393562,0.4037863990773035,-0.2631527599310382,0.2749066956327986,-0.6965659090110412,-1.0128641415726054,0.12240012661640119,-0.7425846300818527,-0.6850559379752429,-1.0000143115956501,0.19332785706619238,-0.6854101927879649,-0.45225040127253174,-0.48285472170965144,-0.5302103050297073,undefined,1486924773039
903d185fccf839df,-0.6279458326088191,-0.5845572259025927,0.5897551737175767,0.7205915840090441,-1.1105376197846275,-1.8999265659555231,1.8894885560503307,-1.0814295826849325,-0.2818193829092427,-0.8543195070229502,0.4742531991244957,-0.23644212509447352,0.05296067290552586,-0.7280442688375188,-1.0254957322311025,0.10219407289632346,-0.732847686968487,-0.7337752734971726,-1.0110063018560507,0.1754502608395312,-0.7162274682704272,-0.44303569883044924,-0.4733481050478896,-0.5092204995822875,undefined,1486924774359
903d185fccf839df,-0.7513011886770697,-0.608037811213452,1.1996942719486625,1.2243922563778904,-1.2287099931696215,-1.900525180613458,1.9650034374067324,-0.6158433722516621,-0.28922204914437005,-0.8131891032104163,0.45304009400325246,-0.28760623912737965,0.45768577317290554,-0.7641517729442596,-1.060232606541969,0.0678437165633318,-0.7496487604517724,-0.7600189919412583,-1.0301565732928037,0.24943979064352115,-0.7198935290644162,-0.44518635131883566,-0.45652289407274094,-0.5055693006516436,undefined,1486924775839
903d185fccf839df,-0.7027907232395184,-0.6919811020847721,1.147377385403412,1.2067952287412609,-1.2143100182520092,-1.9227833892184203,1.9201389567962355,-0.9468353899458842,-0.33313744699734416,-0.9636232257040357,0.5499050705172417,-0.2985450705893302,1.0582455993761142,-0.770632612493874,-1.068653669435045,0.0718848509925992,-0.7567738123332182,-0.7698667185346395,-1.0280645272444036,0.3234601178230465,-0.7109845896383125,-0.44279212176014243,-0.45980221110767144,-0.5096319423675908,undefined,1486924777349
903d185fccf839df,-0.7180368005090723,-0.6855238786494522,1.4064100290205042,1.4496654654013998,-1.0738793975200414,-1.9265916949106026,1.9239153461898564,-0.8685145101145548,-0.24412322328058758,-0.9756374714642719,0.5446172254916885,-0.40720779029564647,0.33583305481283426,-0.7632259285472776,-1.0570747236018123,-0.10794912886909007,-0.8747331431900492,-0.7884982390882134,-1.0199832103270516,0.17178543076946576,-0.7565375257422338,-0.4628486287337693,-0.44013138911560046,-0.43804497748522436,undefined,1486924778851
903d185fccf839df,-0.7332829812948553,-0.6555861283592576,1.0963365204812163,1.0041034093803425,-1.0248474786553798,-1.908176728325036,1.9941075000982296,-0.3565815531039109,-0.21735973531061697,-0.9364075570734657,0.5503640364659393,-0.23701079299834313,-0.11676275623885918,-0.7669292672828821,-1.0444431108566141,0.16685358047123555,-0.7526676996974764,-0.8116894790507526,-1.0401900006160263,0.2976369270039804,-0.7410977447194351,-0.45550860313709435,-0.5445759462951151,-0.42521139820503573,undefined,1486924780346
903d185fccf839df,-0.7166507872108565,-0.610385915047926,0.9023807255029742,0.8933615745140231,-1.037560602291473,-1.8987852363295783,1.9443515682850023,-0.6736641075029787,-0.19253401245603483,-0.9463452556820471,0.5357745528287112,-0.16922886258751937,-0.15592970142602494,-0.7660034293612874,-1.0339167951241783,0.3648730539045492,-0.7508257464329433,-0.8084470122644213,-1.0337319443175454,0.33251440665332177,-0.7303551352874501,-0.46154112777416884,-0.5553295371608276,-0.4460582836191413,undefined,1486924781862
903d185fccf839df,-0.7221949784253584,-0.561076611363741,0.6427101981428293,0.693679196448105,-1.13774329065195,-1.878383430217424,1.9530588543620253,-0.641274811943537,-0.27630200422996737,-0.7835208449064919,0.4278660677669467,-0.18535605461018512,-0.2560230057932264,-0.7326734454947182,-1.016022024512762,0.43963547528061403,-0.7341777545737381,-0.7737171485396438,-1.0378880499354723,0.27989791950572257,-0.7219302623147977,-0.46984866812618303,-0.5793005009386044,-0.43545941541237465,undefined,1486924783354
903d185fccf839df,-0.6778423803554057,-0.6227132300084752,0.9961686960029328,1.0407112220386576,-1.1282598738494054,-1.9072986065361306,1.9278284989813708,-0.8615421037231396,-0.2822051207124623,-0.6731960087545268,0.3562438271046109,-0.16846053658297938,-0.16028158422459893,-0.7252667809742835,-1.0086535954015998,0.43559432671898585,-0.7271707231641364,-0.7807403836038548,-1.0392734184095327,0.2492858091911533,-0.7305197999406633,-0.4651961250887824,-0.561720365707445,-0.45181681363556314,undefined,1486924784851
903d185fccf839df,-0.6487361010928749,-0.7148746870115062,1.2360610152742015,1.2509106788091406,-1.0624211258298357,-1.9542397642576013,1.9121864101717339,-0.9831866349403705,-0.2908293850477639,-0.5228066523506758,0.24600365874365426,-0.22983690219372135,-0.07324392825311943,-0.7585967648408526,-1.0254957175066348,-0.23322685413367839,-0.8995615753159664,-0.7651550091307432,-1.058451677334475,-0.2048143519066549,-0.8270290374703068,-0.45758422591805614,-0.6149204500224811,-0.5347592697740209,undefined,1486924786365
903d185fccf839df,-0.23431771086144812,-0.7031344016630746,1.4536228290735351,1.4786795775155384,-0.7695770475161362,-1.9585628322676916,1.9487538687108414,-0.6485946423255314,-0.2212167926652064,-0.39476157101348064,0.14741925645300774,-0.14338424752359608,-0.11676275623885918,-0.7817426481268498,-0.9823377729404584,-0.28980389499700493,-0.9100736099902186,-0.7501902644280591,-1.0281065082320047,-0.2989758466588224,-0.831171128428517,-0.4624332712794708,-0.5906488767826169,-0.5202238313172522,undefined,1486924787848
903d185fccf839df,-0.22184359117750635,-0.6919810582427836,1.7209497403089586,1.7625870432432562,-0.7242274155491628,-1.9481464750557895,1.8770706167623423,-1.1065853975592468,-0.2216771420435285,0.06439065749768347,0.1995290701464726,-0.06797727183427159,-0.5519510360962567,-0.7150825638367407,-0.9728641093955209,-0.31809241542866823,-0.9178216863526101,-0.7014962595568958,-1.0220752566201348,-0.281298433225058,-0.8038809760075191,-0.4499934181431889,-0.6053249572802948,-0.5059865307082299,undefined,1486924789362
903d185fccf839df,-0.16778907254709202,-0.6379756199596313,1.7413658321408876,1.8901784186807098,-0.6926194696142262,-1.9231700429911023,1.9142192529629802,-0.8251244822454926,-0.21670477771853347,0.13482977957099657,0.21435936946908948,0.07084313396304377,-0.2342635918003565,-0.6715684016849525,-0.9328640440883843,-0.3059687153612899,-0.8867203836879434,-0.6967212199743122,-0.99907673901158,-0.27878848716926813,-0.7984211989012945,-0.4199125684889224,-0.5914284985413101,-0.4811556733429865,undefined,1486924790838
903d185fccf839df,-0.2689681123276614,-0.6326925288185273,2.163729751782905,2.1769103095526603,-0.7173462752520887,-1.9245512817145558,1.9824022286449536,-0.382478948608144,-0.10969958881660506,0.2992496154376242,0.25255080542755637,0.07999090935759533,0.018145610516934058,-0.5919466900987126,-0.9623377789386176,-0.14229947106972096,-0.8351589886479464,-0.6273184891673439,-0.9802833049907081,-0.14328216683807732,-0.7436147083611555,-0.3768683308760289,-0.5056890838276572,-0.448724324731365,undefined,1486924792361
903d185fccf839df,-0.3050044925866807,-0.5640116717403518,2.0903578731148746,1.8983661913648262,-0.6427749722073179,-1.9063086799972002,2.0496095488131965,0.10389829727244661,-0.07870120733881296,0.18217227961951715,0.2567078953712657,0.10077434631982067,-0.08629957664884134,-0.5891691504323792,-0.960232481925855,-0.126134650705436,-0.8348696413844291,-0.6243230066916675,-0.9671642843339048,-0.13530577206997635,-0.7356683850623967,-0.3843540399768151,-0.5069338847908311,-0.4443424001909278,undefined,1486924794609
903d185fccf839df,-0.24817791285442511,-0.6274093646074425,2.2288063462848053,2.221100098557093,-0.6939257424893381,-1.9114539697103254,1.9897656877708583,-0.30351399308241517,-0.06825851257589317,0.1017621875897763,0.2902500256172496,0.05538740079790618,-0.6520443404634582,-0.5604683561737841,-0.9528640564958096,-0.07764009068605579,-0.8028761011697276,-0.5921643189414844,-0.9360634595833487,-0.07680707814262928,-0.7010418716194231,-0.36751329994039084,-0.4838913284832829,-0.430986646996197,undefined,1486924795362
903d185fccf839df,-0.25094997395626634,-0.5199855030392593,2.7711162984939817,2.9395863733870558,-0.6131624524881019,-1.887229881424191,1.9176748181186571,-0.6899841802253107,0.073016948524858,0.2231397923225109,0.25779923379243935,-0.07459509606614396,-0.6999150512477719,-0.511399166492427,-0.9781272525372712,-0.13623773409491793,-0.7744293071122395,-0.5528494043707685,-0.909923374588511,-0.04556363148398843,-0.6650278032919491,-0.40170885601157263,-0.504576021351501,-0.41608031497042575,undefined,1486924796844
903d185fccf839df,-0.3576731014351085,-0.5651856871225984,2.651808149669875,2.597621867964611,-0.7738970445474065,-1.8918138237519098,1.905909077422305,-0.8246671375231633,0.013160741525643326,0.0770142718414558,0.2652749432374185,0.07564482676244819,-0.5737104500891266,-0.5206574421021787,-0.7686533176734042,-0.16654678641031298,-0.7641546613705044,-0.5224892731564846,-0.8248631453479844,0.04695022924194433,-0.6049065392435982,-0.4026737285175797,-0.4739252753346752,-0.4692641208150834,undefined,1486924798388
903d185fccf839df,-0.15115680945227378,-0.5739909267084153,2.4757171656883,2.540473592957056,-0.624898438408453,-1.9131380096249708,1.9244229144949279,-0.6888571501759052,0.009752113474859648,0.02425139975243311,0.2765767510734396,-0.10630421851165478,-0.35611631016042783,-0.4873274711863841,-0.767600665485906,-0.20493830543729358,-0.7671158369349266,-0.49886106061172514,-0.8162150871288796,0.08818726652404418,-0.5781371736789922,-0.4409482106332733,-0.488619200265181,-0.5052357128238001,undefined,1486924799866
903d185fccf839df,-0.10680438390936971,-0.5323128179998083,2.7398536416606625,2.6453841174736663,-0.6255670093461175,-1.9261747617080809,1.8695151882687224,-1.0645678951939404,0.0013505596440756122,-0.005214117009401316,0.3818958867512883,-0.10859527943295169,0.3271292892156863,-0.4539974225659423,-0.7002321623412987,-0.12007280067174685,-0.7698646731470299,-0.47199038032832774,-0.7889765023248048,0.1011681555640828,-0.5502998462022992,-0.46742734305567296,-0.433300081351448,-0.5257909625206266,undefined,1486924801370
903d185fccf839df,-0.2315457532758361,-0.5628376563581052,2.750700206662053,2.7561553949557083,-0.6174001658975735,-1.9284085023667183,1.8575732371225226,-1.1445283646244855,-0.013050218546446826,-0.026029156599022375,0.45436554949809543,-0.16579013582600044,0.43157447638146174,-0.42992572725989936,-0.7528637999013478,-0.182711663304041,-0.857370661676013,-0.4924457892201937,-0.7931116180300517,0.05658965416620942,-0.5665367279280462,-0.48402256695792034,-0.4416506375732332,-0.5297491814796005,undefined,1486924802852
903d185fccf839df,-0.3992535348869908,-0.6526510533686506,2.5969392198785144,2.5582679874864915,-0.6703303602808616,-1.9360344308547348,1.8601320390352154,-1.1365137576072721,-0.06595458932405851,-0.3594845749285263,0.4876426002359429,-0.1363665970271997,-0.9914911987522282,-0.4595524112431874,-0.7402322092428508,-0.0938049251827015,-0.824346642044149,-0.49272443724709913,-0.7900400180368392,0.12408103977646923,-0.5512141531582584,-0.4910403357131218,-0.38740052729640007,-0.5698614309058928,undefined,1486924804354
903d185fccf839df,-0.3978675560941848,-0.6186041250216255,2.395327803435842,2.4413069379799124,-0.689770332320775,-1.8983450113573361,1.825657917670954,-1.3087285583711004,-0.11333706049369541,-0.7824433658823285,0.37550884958849295,0.05144303199519134,-0.8304715352049912,-0.44473908220231795,-0.8149691672664385,-0.025104240781439715,-0.7630226036941687,-0.4930157532542191,-0.8448320434493286,0.020049143404879868,-0.586398512059804,-0.5042029774266328,-0.40653098424022055,-0.5402238047218122,undefined,1486924805838
903d185fccf839df,-0.15531495286315025,-0.6432587695567199,2.572695063177421,2.4962917334745023,-0.5160243416079175,-1.8977673602949687,1.8729707599714103,-0.9148984130337864,-0.09818212431558977,-0.9724891158067005,0.3496441414514822,0.06376836146979395,-0.6955631684491979,-0.4465907580455075,-0.8412849860464631,-0.015001213921400854,-0.7387592580675072,-0.49457999134467145,-0.8720636309042256,0.022820863262115985,-0.598547449816768,-0.5018052941493726,-0.4116719027502157,-0.5840500892616284,undefined,1486924807343
903d185fccf839df,-0.14838485186666175,-0.6191911254057507,2.405535976420281,2.39237444009287,-0.5587305534870597,-1.9219448629527578,1.8863065022394938,-0.8767629210119314,-0.12622585775811784,-0.8472515318431507,0.2781925086319422,0.07046793615469457,-0.9044535427807487,-0.47714325404884134,-0.8949692242583738,-0.1039079803074619,-0.694323348428574,-0.5116852719072539,-0.9100423200308592,-0.004773151219950919,-0.6273557144737658,-0.4781081715924006,-0.4342867360888776,-0.5803434479131567,undefined,1486924808849
903d185fccf839df,-0.25233602175989184,-0.6655653540993288,2.5018757360294,2.5030339539630546,-0.5984950602823116,-1.9561194599453509,1.8736702808838483,-1.00542356622545,-0.16341511696316557,-0.6351511042513948,0.25169482718386227,0.055586465681793956,-0.9001016599821747,-0.515102466375708,-0.8949692757940103,-0.04733093944413536,-0.6894657593163915,-0.49014693070405707,-0.9284509302976685,0.044055320528756096,-0.6234307616798421,-0.45534167597055364,-0.4180631259968616,-0.5633028347668183,undefined,1486924811975
903d185fccf839df,-0.30916256698673766,-0.6121469746562864,2.6939171173676355,2.681444104502696,-0.6091613254165018,-1.9528422211925975,1.817894721609683,-1.3459546361363735,-0.17823559872321945,-0.7063459003565711,0.11995712047475246,0.01612502192825023,-0.8304715352049912,-0.5336191600537312,-0.8918113339559833,-0.06753702142893463,-0.7623371693096033,-0.5220903003181153,-0.9134847512085156,0.04961416088303122,-0.6298477368603302,-0.44697105349038585,-0.5064518167499124,-0.5259328858474398,undefined,1486924813352
903d185fccf839df,-0.4810283539871299,-0.6602822483442287,2.8936146284442006,2.9357443137376507,-0.6065487545637398,-1.923165385633454,1.8396037790564514,-1.1801575941749058,-0.20767962587629632,-0.5814631280221604,0.14893453549917432,-0.011310888934465323,-0.6868594028520499,-0.5271383334548914,-0.8960218838081058,-0.10592854045591521,-0.7929783799675568,-0.5521971134531035,-0.9047947130294759,0.11219344218052862,-0.626902037853758,-0.47097659599273967,-0.4797779226005481,-0.5579345501633084,undefined,1486924814842
903d185fccf839df,-0.23570372415966387,-0.6714355479225312,2.612889363098226,2.606396936204926,-0.5224323229228156,-1.9254853079035013,1.9255747694595269,-0.595705926752751,-0.17202484249507463,-0.7817164175633262,0.15284993396043303,0.026446892149875594,-0.6650999888591801,-0.5243607937885578,-0.8623376248735684,-0.049351527857310215,-0.8163759251847428,-0.5668832094367988,-0.8757859348962067,0.19876350118716982,-0.6087908598910587,-0.4729806291936378,-0.45892975190405083,-0.5363829737958876,undefined,1486924816370
903d185fccf839df,-0.30639054039030617,-0.7571397961042384,2.5082558441446743,2.5697041390851663,-0.5596974027830544,-1.940485606346345,1.9936078489628763,-0.22055465264965116,-0.24740481669642406,-0.6761205347522917,0.25487097893147687,-0.042901703960240935,-0.7564895276292335,-0.547506677074555,-0.8202323177704226,-0.02914553066667556,-0.8138488591970992,-0.5982439467542471,-0.8466442177661241,0.16040597355354544,-0.6180453216403893,-0.46672461935527354,-0.47846548104002534,-0.5316543147285226,undefined,1486924817849
903d185fccf839df,-0.1719470434309198,-0.7600749003228378,2.037403356963521,2.1052113848670504,-0.6053247525971152,-1.9591893967773844,2.058861222015065,0.18358547260465455,-0.23506200015549722,-0.7730205717778154,0.2646741773365436,-0.033459583757691654,-0.9436204879679144,-0.5113991146893289,-0.8812850108613138,-0.22312377074419645,-0.8303041637619796,-0.5924493030790402,-0.8913818262302131,0.0523858787478455,-0.6446580824149071,-0.4642036249939273,-0.5042116380307803,-0.5310714597743527,undefined,1486924819351
903d185fccf839df,-0.3354967506420175,-0.7131136566311382,2.0495254353140675,2.0659338229570037,-0.7367142460903886,-1.9405904228464106,2.0654409887098244,0.1670562548883405,-0.2149347202509658,-0.9227034775730246,0.3005717166398165,0.013301279237748593,-0.9871393159536542,-0.5586166285274963,-0.946548268528795,-0.2958656602365295,-0.862810142390714,-0.628642073665079,-0.9225386251129932,-0.043823607767824145,-0.6935059129773149,-0.44954760994367404,-0.49659445151824616,-0.5501011000338091,undefined,1486924820845
903d185fccf839df,-0.23293169756323237,-0.6391496937978626,2.202648284217604,2.3059628600602884,-0.8189483970217544,-1.9255062700448542,2.024594844125452,-0.0995199925851447,-0.18325517050922727,-1.0111254288468474,0.3591601677592432,0.07581671451813224,-0.8826941287878788,-0.5354708099953718,-0.9518114116705453,-0.2615153180358986,-0.8352219528026109,-0.6110554898204114,-0.9574946920081899,-0.18248661031747845,-0.7206281852585995,-0.4220193292287694,-0.5368879151383338,-0.536789672270453,undefined,1486924822348
903d185fccf839df,-0.17333316024536477,-0.6174300804113866,2.100566300236263,2.0680126883456453,-0.661196668434557,-1.928932582107209,2.03258682156532,0.009707027254627501,-0.24747490452306545,-0.8459023725362418,0.32725056896025995,-0.049177331435074766,-0.7608414104278075,-0.5789850109994836,-0.9602324672013874,-0.30798933203918627,-0.8660104922955555,-0.621922820988106,-0.9800384167201315,-0.2624507346929594,-0.7458714352928625,-0.4147973889403424,-0.5988330449887309,-0.5625629233563821,undefined,1486924823834
903d185fccf839df,-0.08740016322893944,-0.5510973417816812,2.3136621654233798,2.2147442940150346,-0.6525361073230712,-1.916401274624051,2.0241346196153787,-0.012589850654698378,-0.1788458730707811,-0.49035959845714666,0.4417005707452169,-0.050773271992290425,-0.49102467691622104,-0.583614161755134,-0.967600914718134,-0.3484014960087848,-0.906420378345667,-0.6121447551640061,-0.9897849743019282,-0.27078129246779253,-0.7504457995882896,-0.41521196714263825,-0.5591005657698499,-0.5773360267261957,undefined,1486924825354
903d185fccf839df,0.00407671445330021,-0.5528584013900416,2.2989877896897735,2.2322423336332196,-0.5854733569007635,-1.905924356113829,2.0359871621576624,0.09446413425200328,-0.18685870087586073,-0.1289793073691743,0.4212058115778218,0.01379494095955155,-0.4083389037433155,-0.6113891698952325,-0.9160218778099467,-0.3787106048536229,-0.8985154167319686,-0.5998841763097721,-0.9557804728540391,-0.27389177719594754,-0.7329047330486976,-0.40497109770710926,-0.5719189469361533,-0.6113008601244065,undefined,1486924826842
903d185fccf839df,-0.15115687846309325,-0.5927754504902882,2.295159724820609,2.323528948732838,-0.7127177109646163,-1.899924235098548,1.9819367665259104,-0.2999535757361097,-0.11321028789876615,-0.627405236841776,0.4377543773237673,0.028471255062334177,-0.678155637254902,-0.5975016658251833,-0.9107587199437288,-0.2999069218570438,-0.9517320193797963,-0.5856857176259525,-0.9367561442088121,-0.2076322667232853,-0.70709772788041,-0.4074787874717657,-0.5844527649402108,-0.5966775737626239,undefined,1486924828363
903d185fccf839df,-0.3147065511687812,-0.6191911546337431,2.28239950859006,2.3882960943022704,-0.6901508909140214,-1.8956267888906453,1.943260216084177,-0.565515295591033,-0.17859534581395956,-0.6493127530371317,0.33669969482946394,0.04912812372162911,-0.8043602384135473,-0.6206475232096313,-0.8991798035594314,-0.32213356399029636,-0.9511338836581201,-0.6088262942439293,-0.9235601587791747,-0.17144591868597947,-0.7105877961723966,-0.4016112080393144,-0.5859904008946608,-0.5838531996954549,undefined,1486924829883
