UUID,iqrAccX,iqrAccY,iqrAccZ,iqrAccXYZ,meanAccX,meanAccY,meanAccZ,meanAccXYZ, covarianceAccXY, covarianceAccXZ, covarianceAccYZ,pressureDerivative, pressureIQR, iqrGyroX, iqrGyroY, iqrGyroZ, iqrGyroMagnitude, meanGyroX, meanGyroY, meanGyroZ, meanGyroMagnitude, covarianceGyroXY, covarianceGyroXZ, covarianceGyroYZ, class, timestamp 
903d185fccf839df,-1.118595126769161,-1.0588658558745396,-0.933178285288606,-0.9909037415278137,-1.6148610462156416,-1.7924798630482879,1.9029387716654529,-1.0549563289721984,-0.28465253406177626,-0.6812348516428434,0.09523905112832994,-0.287872101176032,-0.8065361798128342,-0.8993235331876328,-1.1181274203738205,-1.0859233612627108,-1.11878977698123,-1.023019808246014,-1.1442215811038783,-1.0847805142119555,-1.1532989916792626,-0.4295499436655381,-0.6586690301907883,-0.5207822457244369,undefined,1491900132779
903d185fccf839df,-1.1269112065584554,-1.0453644524617631,-0.933178285288606,-0.9421075778073031,-1.537252286549473,-1.782270919224867,1.9005385507008623,-1.0440647763069417,-0.2732036177111738,-0.6703511318427825,0.09169274069016325,-0.2315430364456947,-0.7412579378342247,-0.922469380859,-1.1202326768942972,-1.0515730119958995,-1.1642457786936216,-1.0291754290480144,-1.122647414509886,-1.0517134517818973,-1.1438105308917164,-0.43829562997092825,-0.6647612200796346,-0.5197239363023609,undefined,1491900132983
903d185fccf839df,-0.2218436256829161,-0.7577267526463751,-0.8393905689255969,-0.9060387851094239,-0.8943866356813231,-1.6314790840484577,1.837118986728366,-1.0544800315581395,0.1566201711206186,-0.6950508040133446,0.09859358122276599,0.0999802571272179,-0.45185773172905525,-0.9150626936747098,-1.113916874202815,-0.8515328158919837,-1.199367668148145,-1.0015015679213404,-1.108996333410115,-0.9471031089018225,-1.1029702085314401,-0.4629040295310278,-0.6552610628520475,-0.5199523709867975,undefined,1491900134275
903d185fccf839df,-0.029880594100280853,-0.7935347259877644,-0.828863199932682,-0.8322170901566377,-0.7593256380329568,-1.6415230960908604,1.908942112266728,-0.5587693873998332,0.07528024351142275,-0.5321169976408935,0.07298070387184427,0.08068679806816632,-0.38657948975044565,-0.924321053464496,-1.0991800233427242,-0.875780117100215,-1.1999614704869528,-0.9658333267521599,-1.0755029041441202,-0.9204263079262051,-1.0685381976860062,-0.43444995000920106,-0.6500358036852477,-0.5194218252730148,undefined,1491900134534
903d185fccf839df,0.2701915437540025,-0.3597302331841664,-0.6728693659115096,-0.6753269781815068,-0.4829860132978683,-1.5356512838089513,1.8225450606323919,-0.7343168996381922,0.17311544970858,-0.024155077720754,-0.05360715492413553,0.221015661634482,-0.3430606617647059,-0.8345151376914879,-0.8202323067270719,-0.5322768010866118,-0.7021254741742551,-0.859299447982634,-0.8715762905005325,-0.5466096320455727,-0.8752316336416929,-0.2746300163992769,-0.5320940637978393,-0.3090524862207063,undefined,1491900135797
903d185fccf839df,0.29444677647277817,-0.3664809348905547,-0.6687221050338692,-0.5696248039807036,-0.47946501305774447,-1.5248067102173204,1.8414869031031504,-0.5950505589216203,0.17357828690273377,-0.06767711410069298,-0.04016507598083596,0.25306084097931303,-0.34741254456327986,-0.7660034423120619,-0.7570743350290027,-0.5322768010866118,-0.6045453323348353,-0.8048762867117091,-0.8555406645126743,-0.5512152183804527,-0.8407627657030337,-0.2612267197318698,-0.5657757544910545,-0.3142899848005705,undefined,1491900136016
903d185fccf839df,0.40879308060803615,-0.36941598065316933,-0.13215437719691425,-0.050064445411113725,-0.2732040082092393,-1.5464410540195475,1.8843521615545369,-0.2981303255160397,-0.055594644150898084,0.2975677658655045,0.0010733474276612615,0.2576864855125502,0.9581522950089127,-0.7484126124571826,-0.7539164447266122,-0.4959058634066257,-0.627081195099697,-0.7382461216617806,-0.8287730559946584,-0.5034976621689372,-0.7884787134393372,-0.3209573512571813,-0.59700248461527,-0.349787532879753,undefined,1491900137277
903d185fccf839df,0.4309692933794882,-0.36794844315786585,-0.00869922163211628,0.07225853587290587,-0.2152772954397183,-1.5635361493913602,1.895579361009762,-0.23080933651655644,-0.10870328338125032,0.3839736620481846,0.01424913957670993,0.27564818726656626,0.6622242647058824,-0.7558192510760682,-0.7644427751835156,-0.3140511820728754,-0.6190655189527445,-0.7252381298505947,-0.8273849434405373,-0.4590710549444721,-0.7767209607413189,-0.3335486589498951,-0.5833460324433529,-0.357252331220447,undefined,1491900137518
903d185fccf839df,0.3907748387204119,-0.434281254857552,0.012354499805915851,0.04744453381686019,-0.12206040788523671,-1.6172401163381052,1.9169941849382743,-0.1600425883803194,-0.1861430790545051,0.22039860946913498,0.003383555222406483,0.15758673727401307,0.30101799242424243,-0.6447192055648997,-0.796021781278693,-0.3665869330509661,-0.6523016371790137,-0.676464609864454,-0.8274781273315949,-0.46442210467167677,-0.7534872055783082,-0.35551603453830294,-0.613302928046828,-0.3900882340988534,undefined,1491900138791
903d185fccf839df,0.3644405860543126,-0.4407384198368872,0.05924886626131927,0.07930251156338844,-0.121698929834847,-1.618483499767435,1.8982727253353897,-0.28996463074858164,-0.18747242000254205,0.19595280970506623,0.008558410183668846,0.09339690012602121,-0.04713263146167557,-0.6410158797800697,-0.8023375471590064,-0.41508150720270715,-0.6616164546898801,-0.6645166560621433,-0.8380552500006221,-0.4768524814759534,-0.7528628089427746,-0.36646398921212925,-0.6183955187920968,-0.38943273361660147,undefined,1491900138988
903d185fccf839df,0.32979018458809933,-0.5188115314990012,-0.0067855704029580795,0.05706983019065552,-0.09997573064200939,-1.640740581460466,1.88408291665373,-0.4343589800707822,-0.19535866706046756,0.08763029077625524,0.008045505279254603,0.02234254027764646,-0.2647267713903743,-0.6373125021921413,-0.823390208072813,-0.30596877189073296,-0.7038863264960029,-0.6640795743130443,-0.8607160211752635,-0.3840556098160519,-0.7473882500930601,-0.36915983578802686,-0.6313842597354581,-0.42529095730215866,undefined,1491900140268
903d185fccf839df,0.2812796846451383,-0.5358349664445213,-0.013165424381283108,0.006232317357334445,-0.09832764673031777,-1.6395152177957544,1.8860772341233478,-0.42335802475618023,-0.19640495531607322,0.07585075223025574,0.009801584195249608,-0.03854878964320306,-0.2647267713903743,-0.6354608652012754,-0.8307586408650922,-0.30394816934519736,-0.7013939504311655,-0.6710428833563941,-0.8675561966121779,-0.3897349440863328,-0.754559988747708,-0.3671533299021016,-0.6279754171498743,-0.4237743340947435,undefined,1491900140535
903d185fccf839df,0.3242460623844169,-0.5505102829415713,0.038513324283965235,0.16594711273401816,-0.06551193802188227,-1.6481106946045045,1.8895900305340303,-0.41205477900780196,-0.2671963475974214,0.3141617929543901,-0.003379344510051868,-0.16807251716749663,0.03555314171122996,-0.6326833579118782,-0.8328639010666858,-0.2938450718233546,-0.7090795475655829,-0.6797346802162937,-0.8531617468431262,-0.32134209234139854,-0.7441544342577493,-0.36983423848566144,-0.6201968940451522,-0.40898030818947995,undefined,1491900141805
903d185fccf839df,0.33949227767560963,-0.553738865431239,0.06786182161422771,0.18091098506844963,-0.0829329180195619,-1.6496813732953173,1.8802241480170432,-0.483937688525101,-0.2631770744432777,0.34562751012922555,0.0026925936567915444,-0.1674015705736736,0.0660163213012478,-0.6243508360436869,-0.8276007284760003,-0.2978862769144259,-0.7108121642754545,-0.6787330160080043,-0.8511435100261391,-0.3287978213013857,-0.743241260490355,-0.37468311784933483,-0.6236151579590715,-0.4141846618714342,undefined,1491900141991
903d185fccf839df,0.18425858124298694,-0.46950215474483525,0.7837107145588694,0.7045939789887113,0.2061035868329229,-1.658903879153697,1.864218745761308,-0.5047379365495922,-0.3608707110561315,0.5178669256479316,-0.025200457603119866,-0.13563896729169578,-0.6650999888591801,-0.6002791666391931,-0.8339165238052488,-0.34638085106616684,-0.7343266220543575,-0.647067672565977,-0.8468990361834646,-0.28378106071375114,-0.7209556328845479,-0.3763928498542112,-0.6239794992856391,-0.41084624838935974,undefined,1491900143297
903d185fccf839df,0.16208236847153493,-0.43662931485003753,0.8194393200044063,0.7320682257192344,0.21188414883661197,-1.6479937228293988,1.8786905694108174,-0.3889252260004481,-0.4023320717686333,0.47131210854555994,-0.007900346755634212,-0.10521356025353788,-0.8130640040106952,-0.6113891957967815,-0.8370744214698731,-0.34233964597509564,-0.7401319171730317,-0.6465413864509497,-0.850411055412065,-0.29002519742844146,-0.7235312587646476,-0.3776465424140467,-0.6245069270862843,-0.4102084702901396,undefined,1491900143540
903d185fccf839df,0.26048945066649226,-0.41843179145228987,1.1027166285964909,0.9888060762190606,0.18738361783080795,-1.6767528390867026,1.8741751869122805,-0.45471582616626904,-0.4866302323091093,0.7391340934594449,-0.037629813229530025,-0.05544847884077525,-0.9262129567736186,-0.6150924956800625,-0.8297059886775939,-0.3827518664741372,-0.7783454937288535,-0.6358598220451447,-0.8456376754239974,-0.32946477167725907,-0.7223968803479469,-0.3831027703943635,-0.6435434288668851,-0.42460518322236585,undefined,1491900144803
903d185fccf839df,0.2715775570522183,-0.4078655214861049,1.1129248015809299,1.0256674389967024,0.2162967112316892,-1.6853710242199598,1.8605080894077777,-0.5467838328345804,-0.4951168932955535,0.7877206572930607,-0.040093048292219144,0.006774794819799895,-0.9262129567736186,-0.6206475232096313,-0.8297060034020616,-0.38275183820941566,-0.7721029185578429,-0.629367616021426,-0.8441031858827343,-0.32657828929954064,-0.7185619677845726,-0.38285920141470714,-0.6425201552252243,-0.42110435448852984,undefined,1491900145040
903d185fccf839df,0.23276918470217722,-0.434281254857552,1.1027166285964909,1.0092965777915102,0.14473911751321414,-1.7193592824230484,1.8625198937713145,-0.6306387341920396,-0.5039541055552424,0.6215592435571173,-0.04645583946234686,0.060976319311610114,-0.7738970588235294,-0.5521358278302054,-0.831811270965889,-0.3968961408223296,-0.78439742683078,-0.6040582519242531,-0.8508731928727712,-0.33394444162441983,-0.7076700238602229,-0.39719832702153945,-0.6463495163252773,-0.4298958291226357,undefined,1491900146296
903d185fccf839df,0.21613702512358818,-0.4178448349101531,0.9763904879140567,0.9806736288051188,0.12765457547051,-1.7305140094392062,1.886903454531719,-0.5230656372243822,-0.5225817543706721,0.5944246886819509,0.00300584335154195,0.044467186576960124,-0.7086188168449198,-0.5632458310862448,-0.8412849713219955,-0.4171021804100466,-0.7871800169623049,-0.6036451823474714,-0.8524071758995772,-0.32972096952404983,-0.7079111189375044,-0.3981420993487054,-0.6468633034474776,-0.431888926425732,undefined,1491900146543
903d185fccf839df,0.19257486806473986,-0.5135283965159086,1.001272528358203,0.9806736288051188,0.04718956583212609,-1.7500074128498597,1.8654994647619518,-0.7200707503717574,-0.560442527294806,0.44442170982157614,-0.03468562477522519,0.03671180969014559,-0.7782489416221035,-0.5521358278302054,-0.851811294416665,-0.42518459059218905,-0.7850523577249359,-0.5992539482816609,-0.8597331051802538,-0.3483179322690473,-0.7117084675585332,-0.39645434852187167,-0.6360265034512194,-0.43657306613853636,undefined,1491900147824
903d185fccf839df,0.20227696115225013,-0.5135283965159086,0.9763904879140567,0.9601831272326693,0.032583876157531846,-1.7493016533573351,1.8505674270775865,-0.8224843462583162,-0.5509005125367071,0.5214407717636182,-0.060662735410661764,0.038366354081269774,-0.7782489416221035,-0.5521358278302054,-0.8528639392419294,-0.42720520727008543,-0.7858239050631481,-0.6005039741559545,-0.860225527817114,-0.35333420226661805,-0.7133877138419185,-0.3987734430483798,-0.6358961385355499,-0.437376496862678,undefined,1491900148019
903d185fccf839df,0.10802778083030111,-0.5581415363731341,1.127598669040637,1.1008707521465935,-0.000618351874121528,-1.7433481183459587,1.8400324281170903,-0.891760712069173,-0.5073446091060181,0.6327176982580377,-0.12009764935198657,0.0020721753145290624,-0.9044535427807487,-0.5225091438469174,-0.8591797198467104,-0.4272051790053639,-0.7858239050631481,-0.586989600547642,-0.8605142274649012,-0.37675510815808666,-0.7077727844912425,-0.4074443944875218,-0.6415299120870173,-0.44378331182316355,undefined,1491900149301
903d185fccf839df,0.10802778083030111,-0.5552064613825272,1.127598669040637,1.1008707521465935,0.006972493352479825,-1.7473963361129385,1.846867294127998,-0.8468259961374733,-0.5224035324349913,0.6672221903277831,-0.13998452272320205,-0.06420806140614468,-0.9044535427807487,-0.526212482582522,-0.8654955225381926,-0.4231639456495711,-0.7878349478564608,-0.5848033897749839,-0.8605516125385384,-0.3756521821274714,-0.7068094032523975,-0.40856336846556707,-0.637241650756249,-0.44515427259057755,undefined,1491900149571
903d185fccf839df,0.33672038910081703,-0.4841775296978699,1.2794460045950173,1.262995841950341,-0.038459427511665964,-1.7389505152680191,1.8543043846083191,-0.792959942665852,-0.5013101952688882,0.7397580581480463,-0.11029838534147016,-0.04395716319775775,-0.6041736296791445,-0.5336191471029568,-0.8676007753775524,-0.427205235534807,-0.7942012971096601,-0.5897468178272602,-0.8658407742335227,-0.3899106687039249,-0.7135256174242476,-0.4108202671967697,-0.6340535449024307,-0.4474153436312458,undefined,1491900150834
903d185fccf839df,0.33672038910081703,-0.45423976479367917,1.2794460045950173,1.262995841950341,-0.04213142034413609,-1.7347508969831371,1.8543280523157315,-0.7911072068519792,-0.4981966679683532,0.7504398089999936,-0.09091203255499915,-0.04007649778018501,-0.6041736296791445,-0.5188058180620873,-0.8676007827397862,-0.4231640021790142,-0.7870110237322399,-0.5843769023149902,-0.8696259800435344,-0.3894238663916071,-0.7115923807869721,-0.41463803574683195,-0.6303198268889614,-0.448295536848935,undefined,1491900151021
903d185fccf839df,0.32840410227906414,-0.42430197066149605,1.733709702402558,1.7203713778706151,-0.07309136949820476,-1.7308587375411097,1.8993345517409614,-0.48398851962617795,-0.5199688934865403,1.0374364459709158,-0.0511787916307522,-0.0642634522484275,-0.5388953877005348,-0.5484325149961499,-0.8497060342150714,-0.4191227405584999,-0.7974741770049032,-0.5890928418835926,-0.85858777302117,-0.36783769717168074,-0.7041051903415345,-0.42708934402759424,-0.6480422985742512,-0.4583659877995019,undefined,1491900152325
903d185fccf839df,0.34226430427204113,-0.42899809064646716,1.572930977897642,1.7279607227529867,-0.10282731991048884,-1.735864272391509,1.8808680550588908,-0.6196162973782863,-0.5262657090953435,1.0280135562155308,-0.05768192665917614,-0.0510574984019945,-0.6041736296791445,-0.5382483237601562,-0.8539165619804925,-0.4191227405584999,-0.824219853038143,-0.5816516331346336,-0.8571114459139568,-0.366390243434353,-0.6991612668157006,-0.4296307531877187,-0.6530187512454804,-0.45949099477707417,undefined,1491900152554
903d185fccf839df,0.32286018710784004,-0.46715415320833437,1.3643010613227433,1.4576644151339975,-0.16245349981497323,-1.7067091854340983,1.8824038602816597,-0.5912546628746764,-0.4127334086663916,0.7177777371955683,-0.0025005995670107682,-0.03383350963666319,-0.7477857620320856,-0.5215833059253225,-0.871811317867441,-0.42518460472454983,-0.8268146875413706,-0.5492776251000993,-0.8352953894903703,-0.3297727402169328,-0.6682859544936448,-0.4483476976337729,-0.6715277022875542,-0.46612851423307555,undefined,1491900153791
903d185fccf839df,0.28543782805601475,-0.4876996781425829,1.3343144261124786,1.424745761651899,-0.19626258587839274,-1.7069723892097566,1.868237094881455,-0.6989650075779004,-0.41708133091222915,0.6978244931226764,0.006940426361107921,-0.026115932224057465,-0.8130640040106952,-0.5243608067393324,-0.8697060576658474,-0.4150815637321502,-0.8268146875413706,-0.5472447501575098,-0.8373944328512465,-0.3336377500643377,-0.6679195828549997,-0.44872156998047485,-0.6710641850910004,-0.46553291953353065,undefined,1491900154021
903d185fccf839df,0.4004768627971027,-0.5557934763806486,1.3170885154066618,1.3657997617995739,-0.16157921132759923,-1.6915365211082642,1.8782356202204984,-0.6058124378537324,-0.38304929535869314,0.7275021578874751,-0.010434845058083673,0.11597781329060557,-0.9523242535650625,-0.5197316171313584,-0.8654955225381926,-0.4211433572363963,-0.832719022007834,-0.5410891288200348,-0.8146897816298337,-0.3433233718327203,-0.6577476746444041,-0.44580009225258477,-0.6704041785482014,-0.46338569125299595,undefined,1491900155294
903d185fccf839df,0.31593005160594184,-0.553445416388163,1.316450631663609,1.313105178379013,-0.1758249001634712,-1.6844602921134342,1.8649498426469413,-0.6891631013571812,-0.3521792532435068,0.6410897581210523,0.012318809829155543,0.11774612386715855,-0.9262129567736186,-0.5113991535416524,-0.8697060503036137,-0.43326702903905306,-0.8281870154851506,-0.5408991406536664,-0.8189158552770054,-0.36067741994492136,-0.661858867704951,-0.4420185381666805,-0.6670833976100529,-0.4664410619308235,undefined,1491900155515
903d185fccf839df,0.3450363998792921,-0.5992326446976158,1.2749798018458505,1.3077321994652964,-0.1524146467020931,-1.6822661491643445,1.8695257038162505,-0.6561823170798148,-0.2638494549611295,0.5105465926726025,0.005966626033079031,0.028480643672090508,-0.9697317847593583,-0.5243607937885578,-0.891811348680451,-0.4696379737852196,-0.8564153784292783,-0.5510761817356585,-0.8717697639726654,-0.40154489472478283,-0.6942796866920512,-0.4491282596011907,-0.6470309143668543,-0.47981288756782253,undefined,1491900156818
903d185fccf839df,0.37830071903647017,-0.5992326446976158,1.2322329504050369,1.2445989162164868,-0.11376099845984808,-1.683167565053791,1.8940591638978437,-0.4819374845827876,-0.2822448606936153,0.5195863881942607,-0.01998035239632011,0.054424964537710105,-0.9740836675579323,-0.5243607937885578,-0.8802323881227507,-0.4393288649403815,-0.8491033845116018,-0.5513991614147356,-0.8676556391037744,-0.3742126556327145,-0.6890475048012492,-0.44530138044818024,-0.6362070071975185,-0.4650552771765685,undefined,1491900157011
903d185fccf839df,0.33672025107917813,-0.6256483196130783,1.2628572152214048,1.2965501273873836,-0.09170846364927775,-1.6832420997084803,1.8507041800002617,-0.7505352905408892,-0.23930141766943688,0.36484546039254295,0.000985245156976704,0.01055603818762408,-1.0088987299465242,-0.5067699898352276,-0.8918113413182172,-0.3787106048536229,-0.8313027833887886,-0.5593216748299461,-0.8705033409531872,-0.2643447469022792,-0.671439782635288,-0.4354719389027623,-0.6289980159818946,-0.48570329716520677,undefined,1491900158330
903d185fccf839df,0.2785076925541165,-0.6033417496844656,1.2162822989114266,1.185688253392029,-0.09255189101048523,-1.688678544004001,1.8506384364849533,-0.75797650546338,-0.23464335147652762,0.3965808547983487,-0.002159625808580903,-0.04487871539740961,-0.9958430815508021,-0.4993632864624692,-0.8970744844599674,-0.38477241249022975,-0.8164929728552819,-0.5567378334995169,-0.8710420954212765,-0.26871790562442155,-0.6709252084514684,-0.4347135438569936,-0.6274586995549842,-0.48399639775492137,undefined,1491900158559
903d185fccf839df,0.28543775904519525,-0.600406616237874,1.0204128527040262,1.0356173669841402,-0.06848335693968732,-1.7023278853621877,1.8721739185229465,-0.6357863757527454,-0.23306079570237614,0.1747927151322441,0.056149629201869077,-0.14596913716770635,-0.6825075200534759,-0.5428775133681302,-0.8865481760897654,-0.3484014677440633,-0.8184148085042737,-0.5689160841856049,-0.8696987075677939,-0.22688032866028332,-0.6726149909310593,-0.43683067969646205,-0.6141519155573528,-0.4763717561948861,undefined,1491900159783
903d185fccf839df,0.24801539999336997,-0.608037811213452,1.0204128527040262,1.1110502998749872,-0.10340329857933872,-1.7051089972990865,1.8740226729766942,-0.6416851994141775,-0.23246748320804667,0.1261882367990229,0.059034306846332395,-0.16639028098206698,-0.5780623328877006,-0.5428775133681302,-0.8802323954849846,-0.3484014677440633,-0.8184148085042737,-0.5707146401678376,-0.8657525062088798,-0.23206960505839033,-0.6727501930004282,-0.4369243958601887,-0.6153497553778692,-0.47636509166296487,undefined,1491900160011
903d185fccf839df,0.3741426791418229,-0.6690874879300457,0.9891501958707067,0.9838303063450994,-0.11865698890580913,-1.7106758780811304,1.833034514291437,-0.9205564610568869,-0.2615819082724677,0.19093530890670501,0.0669541184783697,-0.07103354862391136,-0.0950033422459893,-0.5252866187593781,-0.8802323954849846,-0.336277824206128,-0.8040007833761675,-0.5583084036533167,-0.862638925130193,-0.23767464000857727,-0.6652929484876298,-0.43990162662141025,-0.6131151078056912,-0.4830754355500007,undefined,1491900161303
903d185fccf839df,0.33672025107917813,-0.672609577918774,0.9566120256882311,0.9514554182966067,-0.10216901722331848,-1.715420538421818,1.8543096452627683,-0.7839592878257627,-0.2598431664753258,0.15421305149731895,0.05853981875567455,-0.10968623486232623,-0.0950033422459893,-0.5141766155033387,-0.8791797727464216,-0.3524427152322168,-0.8039787655086695,-0.5578714304454534,-0.8590215737417902,-0.2576310249838692,-0.6670981441267285,-0.44126883698494335,-0.6130672223322062,-0.47680074176542186,undefined,1491900161518
903d185fccf839df,0.40047700081874166,-0.6579342029657393,0.7856248740619265,0.8342133175481804,-0.15236321944322032,-1.749157239700867,1.8656257016133373,-0.7680801612309994,-0.19841006860876265,-0.07456735768306914,-0.012397048452164843,-0.11557835506329707,-0.517135973707665,-0.5530616787025747,-0.8739165854312685,-0.3524427152322168,-0.8122122447997189,-0.5594103357147663,-0.8734559949168137,-0.2663465454295627,-0.6735817197826761,-0.4415172903283481,-0.6203162444654796,-0.4931476469736124,undefined,1491900162781
903d185fccf839df,0.39493294762587866,-0.5880793012773249,0.8041270605277476,0.849887859101576,-0.19115058238513147,-1.7537761207532145,1.8428621018815825,-0.9354073369719597,-0.1897169871116919,-0.1378566019045618,-0.0068849804931478435,-0.10064332441347842,-0.6955631684491979,-0.55213584078098,-0.8707586877666442,-0.34436029091771353,-0.8084594565604714,-0.5646033490596112,-0.8758628976381765,-0.2741381587446099,-0.6770588051778204,-0.4432860756303714,-0.6167977674043106,-0.49047177714407164,undefined,1491900163004
903d185fccf839df,0.18980284146830836,-0.5452271479584789,0.8034889226477455,0.8891223696859565,-0.27309673063659634,-1.7800243173719588,1.8710799202820698,-0.8063219545516508,-0.20856336976867648,-0.3265299833478461,-0.044175519506379796,-0.1344787548331695,-0.7913045900178254,-0.5623200190661991,-0.8897060884788572,-0.35244268696749526,-0.7993311383669578,-0.5756670009110283,-0.8737988389250385,-0.3036261815184647,-0.6867835385092326,-0.4496339822684649,-0.6129236285012762,-0.5001956002702844,undefined,1491900164312
903d185fccf839df,0.11911588721602712,-0.5452271479584789,0.7856248740619265,0.8266893209590834,-0.2860155670611589,-1.780755698239014,1.8495733655584154,-0.9478408739928561,-0.21845031388163724,-0.3004543999470256,-0.07790280699603504,-0.14430050411477868,-0.7216744652406417,-0.5688008586158136,-0.8897060884788572,-0.3463808651985276,-0.7928465898596968,-0.5762812960657054,-0.8736449090979859,-0.3075527849322578,-0.6880167550129498,-0.4472546836567552,-0.6110223325104444,-0.4999242083338185,undefined,1491900164470
903d185fccf839df,0.18148662365737492,-0.608624884667558,0.9330057527301904,0.9138478730356229,-0.3440474688519641,-1.8066684838087674,1.8535391091815938,-0.9710237890338471,-0.23451804719538344,-0.3531941284366218,-0.07005495026955973,-0.11476667998234645,0.0007380793226381577,-0.5771333351562941,-0.8897060663921559,-0.35042208442195966,-0.7983826074606054,-0.5844381275664796,-0.8807816562778354,-0.31240329499205416,-0.6955550736933002,-0.4492214408561072,-0.604086490152559,-0.4945847707786996,undefined,1491900165793
903d185fccf839df,0.1440642646055496,-0.6303444395980494,0.9330057527301904,0.9138478730356229,-0.3551354501033926,-1.8136398969667629,1.8513616287711294,-1.0031190829490704,-0.21707049363391967,-0.3475741886754509,-0.07643552978389243,-0.11951738884637186,0.0007380793226381577,-0.5854657987459999,-0.9002323894868255,-0.344360262652992,-0.8067089675626312,-0.5883645525357293,-0.8818591650977902,-0.3056279789956881,-0.6966591889923407,-0.4491444390806143,-0.6035711210409874,-0.49443441672111577,undefined,1491900165996
903d185fccf839df,0.06921951199648924,-0.5786870905353749,0.9617161121804507,0.9206062162890232,-0.5079089129189909,-1.8393966241535764,1.8609051902545488,-1.0180436058864009,-0.31954731241938555,-0.38121385739850033,-0.043904065500265835,-0.15250468355993738,-0.0775958110516934,-0.596575840854363,-0.8791797580219539,-0.3342572216605924,-0.7998583517924072,-0.6058624763205399,-0.8788435397628689,-0.3223352920087382,-0.7082385263986797,-0.4383562110818176,-0.6010759578572828,-0.49515377582801195,undefined,1491900167312
903d185fccf839df,0.12327399612149385,-0.5587285221432632,0.9361954255824035,0.9342387359026673,-0.4832335253936189,-1.8386466091589502,1.880723408011977,-0.8840141194296446,-0.3029099599915591,-0.40822594479278074,-0.025752222607546796,-0.08553232624017046,-0.14287405303030304,-0.5928724632664347,-0.8760218603573298,-0.3140511396757931,-0.8036147554942198,-0.5997131879378156,-0.8773742095644056,-0.32887963129648523,-0.7052892373789011,-0.43887132073047525,-0.6061133556742591,-0.4960463530364213,undefined,1491900167542
903d185fccf839df,-0.07908415245046439,-0.579274076305504,0.9840461093784871,0.9567851234897821,-0.6053556086899706,-1.8621253415912187,1.8749483543682013,-0.9789925880016991,-0.36285046030737333,-0.3875813268560391,-0.01580098013206498,-0.06084953501107945,-0.3996351381461676,-0.6012049786592388,-0.8718113399541425,-0.28576266164121217,-0.8026823973357706,-0.6021260397114419,-0.8691459605362027,-0.2844089196629266,-0.6941895645873652,-0.4536250177434238,-0.6208787047985301,-0.4993282657616781,undefined,1491900168874
903d185fccf839df,-0.058293952977228114,-0.5775130313111398,0.9840461093784871,0.9753954337647712,-0.5976310500840466,-1.8600336846621373,1.8884865951693124,-0.8860937353172808,-0.36326542126905303,-0.37069692585229186,-0.005946589682153087,-0.048086773656043934,-0.4126907865418895,-0.5965758020020393,-0.8676008195509551,-0.2837420166985942,-0.8000142266652995,-0.6019740491960645,-0.8643181612148074,-0.2691028654008855,-0.6899641271416138,-0.44777261779568084,-0.6142759371053552,-0.4798559373667235,undefined,1491900169055
903d185fccf839df,-0.13313867108087873,-0.5540324021582921,1.032534931054573,1.0220200748698747,-0.746290231923695,-1.8381458241129183,1.88481538220141,-0.9225729495907831,-0.3630305962809427,-0.347752458013523,-0.023068933136589947,0.02018757330845665,-0.5563029188948306,-0.6252766869160563,-0.869706072390315,-0.275659592384091,-0.8225294888108827,-0.6171731148412317,-0.8695727661159042,-0.2400152014816693,-0.6986210899176193,-0.4387945737791043,-0.6067866907383276,-0.46569810370183595,undefined,1491900170383
903d185fccf839df,-0.13313867108087873,-0.5575544921470204,1.032534931054573,1.0220200748698747,-0.7440788066503177,-1.8397087437318442,1.8828851033165284,-0.9374531280101897,-0.360447633522399,-0.3449574619410799,-0.025876220880970212,-0.03876154375086298,-0.5650066844919787,-0.6224991861020465,-0.8676008121887214,-0.2736389898385554,-0.8199007114263226,-0.6195353027498489,-0.8704683579081189,-0.24110849114874272,-0.7002572404855251,-0.43761810954904273,-0.6048447140361943,-0.4645561658518267,undefined,1491900170511
903d185fccf839df,-0.3216367211760892,-0.571642881329926,1.032534931054573,1.0034097645948854,-0.8492706284722691,-1.8271098883698087,1.8759292663462932,-0.998073589929627,-0.3454879561270681,-0.378854895614078,-0.05198532894036054,-0.0297945028775692,-0.4083389037433155,-0.6215733611312262,-0.8676008121887214,-0.26757716806958776,-0.810534590586297,-0.6061094621316313,-0.8645350623886867,-0.24038476391659647,-0.6905646557616673,-0.42559076883823405,-0.6139158357692368,-0.4700830132519165,undefined,1491900171803
903d185fccf839df,-0.3978674525779556,-0.571642881329926,1.0784722177584478,1.0034097645948854,-0.8679700254281373,-1.8260989985465401,1.8698018190383894,-1.0419913278780029,-0.3345562878124759,-0.39818475514376983,-0.05211329499224844,-0.026034838156354906,-0.27778241978609625,-0.6187958214648926,-0.8676008121887214,-0.26959777061512336,-0.810534590586297,-0.6064894385972482,-0.8656335616535056,-0.23416379201014584,-0.6902517500334097,-0.4253478345462929,-0.6145446416579122,-0.47003695515080457,undefined,1491900172004
903d185fccf839df,-0.4491500481281676,-0.4994399488770183,1.2258528422897623,1.2266933547913248,-0.9495870323666298,-1.776660897081186,1.8623279050244461,-1.0258696931386184,-0.4056571896188039,-0.2893283505899176,-0.08455455966812152,-0.15319401202190058,-0.0950033422459893,-0.6224991990528209,-0.911811372131227,-0.2615153463006201,-0.8847460706642714,-0.6064704398658761,-0.9037521873891646,-0.23958404444375633,-0.7069601569722156,-0.41870566363561185,-0.6119487448084893,-0.4677261318283993,undefined,1491900173318
903d185fccf839df,-0.46855423430318816,-0.5299647580073228,1.2258528422897623,1.2266933547913248,-0.9550075948119302,-1.7744038643864484,1.8486292435932483,-1.1159863151420197,-0.4051499420313213,-0.27423937865008874,-0.07779351040465533,-0.160728929387113,-0.03842886586452762,-0.6215733611312262,-0.9244429701519578,-0.2534329502508384,-0.8847460706642714,-0.6106438495665674,-0.9037242002312968,-0.23199261104067184,-0.7078099696860792,-0.41919971913975135,-0.6111727369337661,-0.4670840915199961,undefined,1491900173556
903d185fccf839df,-0.3950954259815241,-0.5188114438150241,1.1473771312664625,1.139218515238393,-1.0244257651148125,-1.7895252849484427,1.8620228467751412,-1.0628709040084086,-0.39571563410681193,-0.29604389087510224,-0.0585898319090403,0.0024634660498497898,-0.4823209113190731,-0.5937983270895786,-0.9539166939588403,-0.21302077214887913,-0.8783071435862994,-0.590163110273085,-0.9294444768365674,-0.22837397648195512,-0.7047572254497003,-0.43855417234667404,-0.6310584345553985,-0.45138492651890677,undefined,1491900174779
903d185fccf839df,-0.42974575843691787,-0.5076581588507177,1.1914002584672805,1.1802889060435637,-1.04206573547377,-1.78633888554982,1.8682660054354454,-1.0224402301332103,-0.39476486781589465,-0.3173755682510538,-0.061001926930096206,0.006515836060028324,-0.4823209113190731,-0.6104633319736377,-0.9454956384279982,-0.231206237455782,-0.8895177064531475,-0.5915943552451957,-0.9329009014463484,-0.24023077907172646,-0.7080922275904269,-0.4416789430030849,-0.633183160224024,-0.45247310866515406,undefined,1491900174996
903d185fccf839df,-0.5059766278604232,-0.4847645446959913,1.1473771312664625,1.1695361555384693,-1.094893075143261,-1.7936596846348904,1.8711614237627678,-1.0235973391508615,-0.3675117274540358,-0.2358319039697106,-0.07313971390191189,0.16663338706031328,-0.17768911541889482,-0.5937983270895786,-0.9370745681726885,-0.24535049767161365,-0.8767421878021486,-0.5878325859256917,-0.9239379868479002,-0.24096990450699748,-0.7034137327896507,-0.44244964469987574,-0.6405062266630451,-0.4538073618568546,undefined,1491900176360
903d185fccf839df,-0.4824144017907554,-0.4747852897279277,1.1473771312664625,1.1695361555384693,-1.0723159700778053,-1.7948196457391083,1.8735440267483527,-1.0041780749663445,-0.385340632067911,-0.24406971289187893,-0.0740385516061038,0.18941065127863504,-0.012317569073083769,-0.5937983270895786,-0.9349693079710949,-0.23120620919106047,-0.8767421878021486,-0.588776194583453,-0.924749617031936,-0.23835216896960107,-0.7034541264127314,-0.4400493557936748,-0.6393282905268707,-0.45088791317057647,undefined,1491900176524
903d185fccf839df,-0.53646888591576,-0.4865255604623631,1.0478476988051306,1.1017116415537325,-1.1419398542574404,-1.8106281919849865,1.902382482956348,-0.8443437286389772,-0.3650102023748962,-0.16690279802607755,-0.14904787740558512,0.18064948176970794,0.45768577317290554,-0.6141666707092424,-0.9570746063479321,-0.3443602767853528,-0.8838659342111181,-0.5704296570877851,-0.9308158521782394,-0.35913757206164,-0.7216626812280947,-0.43146788998801194,-0.6293751993931925,-0.46599805180408527,undefined,1491900177834
903d185fccf839df,-0.5406269258104073,-0.4865255604623631,1.0510378799312425,1.107984402817102,-1.1700918059214345,-1.81247760778534,1.8930571925416073,-0.9118806040801052,-0.35504929862890805,-0.22492712311321617,-0.15438306040186814,0.20814247041363346,0.4533338903743316,-0.6215733740820008,-0.9654956471543067,-0.3443602767853528,-0.8876478856566473,-0.578472495192653,-0.9378826313655463,-0.37227244647157853,-0.7305343992528877,-0.44224962206636426,-0.6642046859416754,-0.45397998089060726,undefined,1491900178037
903d185fccf839df,-0.5475571130704201,-0.4900477673630608,1.018499201474868,0.9125822867523502,-1.198819760670638,-1.8143875833767946,1.9395916114455418,-0.6117846909133275,-0.3390399861751997,-0.33134224459177,-0.16856575049031206,0.23904758363470582,-0.4475058489304813,-0.6002791795899676,-0.9886535609074731,-0.3686075497288625,-0.9054813692950486,-0.5550849355817475,-0.9394079362651202,-0.40427041602818814,-0.7224991046947146,-0.4443909885150487,-0.6556138291403139,-0.4693422995332264,undefined,1491900179336
903d185fccf839df,-0.5669613164981455,-0.4900477673630608,0.9776665095371115,0.8664489094202193,-1.20973288537049,-1.8154403995231998,1.9302952472976178,-0.6765978326434936,-0.3456454760095255,-0.35746919238900704,-0.17541625035168543,0.20244950279780144,-0.4300983177361854,-0.5910208392263433,-0.9886535461830056,-0.3989166868384222,-0.9184535356707881,-0.5581184157527083,-0.9412131134346005,-0.4180366263917914,-0.7268648429605891,-0.4424588275321473,-0.6546043005656043,-0.4678825876866283,undefined,1491900179516
903d185fccf839df,-0.5364689894319892,-0.5223335922597371,0.6637644278547603,0.6864949661950808,-1.2494356757709348,-1.841588438460084,1.9526301958736905,-0.5805557331696477,-0.353851759525617,-0.3669508796889544,-0.1533114332358827,0.15820650227116131,-0.3909313725490196,-0.5854658505490982,-0.9802324980143973,-0.4272052214024462,-0.9184535356707881,-0.545623517727724,-0.9490425449585289,-0.4511124868873195,-0.7284655884496466,-0.4401794378914087,-0.6521964274073183,-0.4591234098231647,undefined,1491900181322
903d185fccf839df,-0.5364689894319892,-0.5223335922597371,0.6637644278547603,0.6864949661950808,-1.2494356757709348,-1.841588438460084,1.9526301958736905,-0.5805557331696477,-0.353851759525617,-0.3669508796889544,-0.1533114332358827,0.15820650227116131,-0.3909313725490196,-0.5854658505490982,-0.9802324980143973,-0.4272052214024462,-0.9184535356707881,-0.545623517727724,-0.9490425449585289,-0.4511124868873195,-0.7284655884496466,-0.4401794378914087,-0.6521964274073183,-0.4591234098231647,undefined,1491900181341
903d185fccf839df,-0.5877514642132672,-0.5323128472278007,0.7313938280136189,0.724792026088203,-1.2782870548575511,-1.8509403339872859,1.9418032861099248,-0.6697716130914061,-0.36415454997105745,-0.36716523516431226,-0.15903692369242658,0.16677404665479426,-0.2516711229946524,-0.5984275296483271,-0.9833904177657229,-0.445390630179906,-0.9285400322552047,-0.5470230985517243,-0.9485877524411737,-0.46962141769448956,-0.7323209681792604,-0.4418921984217812,-0.6479577620096054,-0.4540855126292927,undefined,1491900182292
903d185fccf839df,-0.5905234908096987,-0.5246816230242303,0.7313938280136189,0.724792026088203,-1.2845921867720358,-1.8559714909950449,1.9414114438225587,-0.6801383500475616,-0.3589906301936838,-0.36881684170736084,-0.14860526612056044,0.12330874229464676,-0.2864861853832442,-0.5984275296483271,-0.9833904177657229,-0.44741123272544164,-0.921178207353752,-0.5482833544487219,-0.9480140142184368,-0.47137684050229095,-0.733584783206039,-0.43743890330487795,-0.6451790829885711,-0.45376148439477815,undefined,1491900182497
903d185fccf839df,-0.5752773272766205,-0.6097988854358085,0.7550001009716597,0.7553657728645543,-1.2824939034919058,-1.8941407346057972,1.9457348459544017,-0.6976024640326385,-0.3499812135597425,-0.45219632920343894,-0.11597191398979348,0.12766766051721878,-0.6302849264705882,-0.5493583399669701,-0.9918114880210326,-0.4676173147102409,-0.8895006858793871,-0.5333882712627692,-0.9548638926417076,-0.48928523332367374,-0.7328684188064006,-0.4341619430409063,-0.6281621805389535,-0.44471476276836847,undefined,1491900183799
903d185fccf839df,-0.578049353873052,-0.6103859004339299,0.7550001009716597,0.7553657728645543,-1.2811773340149153,-1.899181208010487,1.9410695714673283,-0.7383271881768971,-0.3468153482316744,-0.45416493611203407,-0.11790738690809145,0.12179334351038444,-0.7303782308377896,-0.5493583399669701,-1.0002325582763423,-0.4676173147102409,-0.8895006858793871,-0.534483870386078,-0.9564521685088503,-0.4906402964152485,-0.7340673123195977,-0.4359942767990935,-0.6296311784865195,-0.4463984991063285,undefined,1491900184011
903d185fccf839df,-0.5863654681677563,-0.656173143357379,0.6963031063111347,0.6070326152697035,-1.262015079894108,-1.9208244979983182,1.947428442527555,-0.72496550864264,-0.31828178865626655,-0.463636101596938,-0.10141552589307244,0.039685343792438474,-0.9392686051693405,-0.5030666251980739,-1.0233904425805735,-0.4696379596528588,-0.8690757099994951,-0.5142627825308187,-0.9631691069871627,-0.49932501980850175,-0.7261357862667168,-0.4260953270546789,-0.6238569201638837,-0.4538369408477212,undefined,1491900185297
903d185fccf839df,-0.5142927766605372,-0.6784797132859917,0.5967734197128532,0.5027243406178,-1.251173955451624,-1.9283456113091062,1.972545718978078,-0.5720783749511368,-0.31072960206087125,-0.4951517245420986,-0.07156832099199709,0.0013753537279147512,-0.9392686051693405,-0.4938082848344495,-1.0328641576611477,-0.46559672629706605,-0.8673971760533805,-0.5065999204929278,-0.9640087243413005,-0.4936891885866886,-0.7214785620954374,-0.42531834699613824,-0.6261624346258314,-0.4543162073960623,undefined,1491900185497
903d185fccf839df,-0.4643961944085409,-0.6485419337678048,0.5087276735851164,0.4066830211409348,-1.1967111872223049,-1.927898397698208,1.9673544827507536,-0.585659745491175,-0.2539654706344264,-0.6281314882825578,-0.10337953476335758,0.0004423551438328158,-0.9523242535650625,-0.49010497200039393,-1.033916773037477,-0.44539068670934906,-0.8787955860586009,-0.4953652780382778,-0.9571238623958308,-0.4443217722974217,-0.7033097188353428,-0.43337448058574146,-0.6087000041516364,-0.46397081193682305,undefined,1491900186786
903d185fccf839df,-0.4643961944085409,-0.65499909874714,0.5125559925912305,0.4299185316980021,-1.1964540451744416,-1.9265590851746681,1.9573875171483173,-0.6510846768170188,-0.2535996755897305,-0.6275847380706283,-0.10156779241434258,-0.059827469993314515,-0.9392686051693405,-0.5021407743257045,-1.038127300802898,-0.4514525084783167,-0.8797800981692676,-0.5027748220633131,-0.9600765163778084,-0.4411650910482444,-0.7078686076309932,-0.43580068798477,-0.6060560867188082,-0.4599486935143939,undefined,1491900187019
903d185fccf839df,-0.4158856254547604,-0.6444328287809551,0.5100039493451207,0.4224412556270412,-1.1200621742599934,-1.9230582387366884,1.947433698991917,-0.6892702707762663,-0.2606534487797623,-0.5558511286088383,-0.10403363426482087,-0.005120254935959497,-0.8130640040106952,-0.5391741357802019,-1.0233904573050412,-0.4130609470542538,-0.8840593740011208,-0.49552360130354933,-0.9610140889007078,-0.42033099503253435,-0.703990168304406,-0.4203074523084468,-0.5885266566478896,-0.43801384640479474,undefined,1491900188317
903d185fccf839df,-0.4158856254547604,-0.6602822483442287,0.5100039493451207,0.4224412556270412,-1.1271284482954658,-1.9205333433139913,1.9504632367721244,-0.6692902336309302,-0.2597420470149575,-0.5531109274857365,-0.09951135400390945,0.01123898840139217,-0.7521376448306596,-0.5345449720737769,-1.017074654613559,-0.38477242662259054,-0.8840593740011208,-0.49770846685563963,-0.9597616598577726,-0.409706067647672,-0.7031683025055799,-0.4202241227132767,-0.5881632876938917,-0.43950875327267264,undefined,1491900188509
903d185fccf839df,-0.4144995776511349,-0.6344535445848991,0.612085679189512,0.5317645047842232,-1.1384324304030193,-1.9405252038964278,1.9471207518559819,-0.7150509294602861,-0.24837642021987125,-0.6378990204245527,-0.08286552863804812,0.02220797283824585,-0.7477857620320856,-0.5169541292681231,-1.0265483255207302,-0.44539068670934906,-0.8769661527170859,-0.4853972235661197,-0.966975371798222,-0.44903369809830174,-0.7067587388652786,-0.4167639879617396,-0.5719267588188994,-0.4458744336499284,undefined,1491900189836
903d185fccf839df,-0.4158856254547604,-0.6344535445848991,0.5234020493187224,0.4436957206341311,-1.09013079741445,-1.9410562705015233,1.9521673494165668,-0.6614081757826905,-0.24655315944927703,-0.6847102044210355,-0.062183426540136796,0.03762222311311886,-0.6955631684491979,-0.5058441260120837,-1.0265483255207302,-0.44539068670934906,-0.8726868768852327,-0.4774557124715035,-0.9654570633669695,-0.4520979877055149,-0.7033473876453825,-0.41657927839799397,-0.5541583406249685,-0.4507996175505502,undefined,1491900189990
903d185fccf839df,-0.4352898461351906,-0.6344535445848991,0.5125559925912305,0.4436957206341311,-1.0561365682461927,-1.9408955526815437,1.9430997724086103,-0.7140672184374385,-0.24063495997282686,-0.7003083526398254,-0.06642994022761413,0.0830574063621854,-0.5693585672905526,-0.5049182880904889,-1.0286535930845577,-0.40093734591340086,-0.8700407857521039,-0.4936490493051047,-0.9599015959223798,-0.4470472981914746,-0.7072609763943838,-0.42104888819168906,-0.5576703855227783,-0.4463740771459324,undefined,1491900191313
903d185fccf839df,-0.3285668221725777,-0.6514769795304194,0.5234020493187224,0.4451771024446041,-1.0373034581270584,-1.943292339825394,1.9553310014120502,-0.6337023464487502,-0.23339472362946764,-0.7029453635685424,-0.0552468035475357,0.07941246349231444,-0.4649133801247772,-0.5086216268260936,-1.030758860648385,-0.4514525084783167,-0.8700407857521039,-0.49477631315787385,-0.9578725205846313,-0.4605979303457544,-0.7095826160642548,-0.424310744883739,-0.5645810261487841,-0.46300076262870654,undefined,1491900191505
903d185fccf839df,-0.32718073986354246,-0.6344535445848991,0.5738050304978652,0.4889569682227085,-0.9134328084827269,-1.9417410668478823,1.9250382686025072,-0.8069781082803196,-0.244898239741409,-0.6615540955038054,-0.0054104427945813865,-0.00811058645131049,-0.6172292780748664,-0.503992450168894,-1.0297062231853544,-0.46357615201625196,-0.8612183150391902,-0.5031864623891338,-0.9595167706696368,-0.4517746220473939,-0.7124086412374848,-0.44073600981282746,-0.5619861993262049,-0.4707612312873673,undefined,1491900192795
903d185fccf839df,-0.31332060688138497,-0.6256483196130783,0.5738050304978652,0.4889569682227085,-0.9090511001719819,-1.9352611236147106,1.9351814305132464,-0.731876979561898,-0.23790976715479717,-0.6506659608480397,0.0017847945982180178,-0.020854532451785535,-0.6172292780748664,-0.5215833318268717,-1.0297062231853544,-0.41912281122030376,-0.8612183150391902,-0.5040224108881095,-0.9588310831425518,-0.44726287773356654,-0.7124864196956329,-0.4397447023697543,-0.5612426126206829,-0.4695158874193823,undefined,1491900192987
903d185fccf839df,-0.21075551929719008,-0.6227132446224714,0.536800149292324,0.4301968993880882,-0.7804696017081421,-1.942744969685135,1.9066795964812504,-0.8862067954789433,-0.2458942230843288,-0.8104637166133183,0.02457395310369345,-0.13836020183632058,-0.5084322081105169,-0.4928824728144038,-1.0202325375537156,-0.32011301797420383,-0.8242093782088796,-0.5327676422065716,-0.9510086484723197,-0.3037185707372129,-0.6930702408113578,-0.43369438189795045,-0.5685092800630904,-0.4871288378409348,undefined,1491900194284
903d185fccf839df,-0.19966741291146406,-0.6197781696318644,0.5304202953139989,0.3798905292825021,-0.7652467699151627,-1.9409910525780985,1.92895668204847,-0.7345697904190606,-0.2516958614455708,-0.7944779017093575,0.025917925385210785,-0.192629832709292,-0.4866727941176471,-0.49380832368677313,-1.012864119485904,-0.31203055126261825,-0.8149662436611909,-0.5315770488173686,-0.9497002447466252,-0.27711005619829127,-0.6865021971481763,-0.43593928240885543,-0.5691413743037333,-0.4873680738206148,undefined,1491900194495
903d185fccf839df,-0.13036667898985696,-0.611559959658165,0.5297824115709462,0.3901763239750382,-0.6489052513432091,-1.9401758197569947,1.9308369889061723,-0.6946839933008916,-0.2668436950352042,-0.8185979360514997,0.061923859512063244,-0.25166978488420255,0.39240753119429594,-0.48732743233406045,-1.0044430786795295,-0.25949472962272374,-0.8316833697023562,-0.5174419188339463,-0.9432491847329539,-0.21085054481019191,-0.6642428661445767,-0.44250695505325044,-0.58255805633836,-0.5027807357936921,undefined,1491900195785
903d185fccf839df,-0.13313870558628849,-0.6080378696694367,0.48065519787790884,0.33392896101178,-0.6585018068221371,-1.9362463930021196,1.9325779208941496,-0.6820757355305445,-0.29137173914256115,-0.8240223053325716,0.057352875718374635,-0.31131191965798993,0.553427194741533,-0.46973660247918114,-1.0012851810149053,-0.2594947437550845,-0.8316833697023562,-0.513882804387592,-0.9424935289625268,-0.21764125921161717,-0.662927001323564,-0.4443622754037069,-0.5833082383612482,-0.5012833632023401,undefined,1491900196026
903d185fccf839df,0.04288512130875101,-0.5827962101362208,0.47491322764263655,0.3512823166249598,-0.5911819198754048,-1.9282128465288313,1.935362890618564,-0.6369143159774343,-0.22593275374574603,-0.7452261629498689,0.09908550528476154,-0.3301743417077641,0.744910037878788,-0.5002891373348386,-1.001285158928204,-0.18877344267592633,-0.8603491823694916,-0.5318683642099186,-0.947335322058602,-0.15977390045712087,-0.6662621493059362,-0.4346665865900218,-0.5708633884248745,-0.5093456848339272,undefined,1491900197306
903d185fccf839df,0.07060538727306606,-0.5927754797182806,0.46534293840125013,0.3292046764626873,-0.5964173389297929,-1.9281103602768734,1.9462397692669438,-0.570621016405151,-0.2424212006088688,-0.6984413881703586,0.10810939214213816,-0.3325409736221095,0.8232439282531195,-0.4975116365208287,-1.0023378111157022,-0.17462921072481624,-0.8644284004713473,-0.530076141343,-0.9423326023857679,-0.15264442039050027,-0.6630129291644723,-0.4322117975598952,-0.5646809953328527,-0.5101558971939012,undefined,1491900197491
903d185fccf839df,0.017936847435457735,-0.5675337763430763,0.46087724392598217,0.3245439057200599,-0.5886619239589429,-1.9222150557797792,1.9194052348209865,-0.7503416300131118,-0.2536777108333766,-0.7579264052570702,0.15792381711139303,-0.39365929961866086,0.21833221925133692,-0.4891791211280246,-0.9928641181218294,-0.1564437736826349,-0.8567405896470752,-0.5455221912379189,-0.9453552249047067,-0.12209390554050473,-0.6645936249641399,-0.4296605425492945,-0.5715441299915012,-0.5236896143105735,undefined,1491900198854
903d185fccf839df,0.017936847435457735,-0.5622506413599838,0.43535681146488436,0.29166000878885623,-0.5833133620910937,-1.9211389469159226,1.9313945208582488,-0.6692176544916404,-0.25256318272706346,-0.7867375873671673,0.16291103773077428,-0.38561902332071424,0.21398033645276296,-0.4891791211280246,-0.9960220157864537,-0.1604849505089846,-0.8547628522072187,-0.549777929477713,-0.9470834373074701,-0.1281454946547447,-0.6683287881778731,-0.4334686336677671,-0.5669238902854242,-0.5202542396877947,undefined,1491900199015
903d185fccf839df,0.0955537301571788,-0.5417050725837468,0.333912457089647,0.26837410419687413,-0.5344768731846093,-1.9171932156618434,1.9443620969265532,-0.577718862877928,-0.2431115000037432,-0.7752568233109558,0.21311219152209881,-0.4125283628200162,0.6883355614973262,-0.4706624533515505,-0.9918114806587988,-0.15442317113709927,-0.8424925259294996,-0.551557486208127,-0.9425565006213235,-0.08949539717690701,-0.6604120159296603,-0.4415291032865396,-0.5578598640854155,-0.5041158052312011,undefined,1491900200339
903d185fccf839df,0.07753555728037402,-0.5434661175781109,0.34475902209103776,0.2713031349809393,-0.5175157581060024,-1.913007572798678,1.9182744224741843,-0.7427997580770134,-0.2511429955098953,-0.7631529969151231,0.2136975262503801,-0.43740444288685426,0.6752799131016043,-0.47158825242082164,-1.0002325435518746,-0.14229952759916403,-0.8424925259294996,-0.5664145716212817,-0.9419337844227139,-0.08398275416485486,-0.6671743556668347,-0.434808620232495,-0.5753839276959349,-0.502946708597702,undefined,1491900200543
903d185fccf839df,0.19257479905392041,-0.582209151296111,0.348586832823253,0.2624965380912161,-0.5221237489268581,-1.8965328638130314,1.9124967395507058,-0.7792427763941746,-0.24578043524631252,-0.7101942088259223,0.21751493128877658,-0.5202016222305342,1.597879066399287,-0.477143292901165,-0.980232505376631,0.03551397690823652,-0.7708656545108469,-0.5855843912856374,-0.9264358487529513,0.07576072091426793,-0.6387418809832909,-0.43994934544851594,-0.5960660752637611,-0.45038888500187835,undefined,1491900201795
903d185fccf839df,0.12050196952506234,-0.5798610913036254,0.26819772470774433,0.2223229913708963,-0.5263614555705673,-1.9007534453831578,1.9352577089552365,-0.6353838437574781,-0.23840420427492795,-0.6986096268919946,0.21785934808236102,-0.4249400295030446,1.963437221479501,-0.4697365895284066,-0.9802325274633324,0.0395552102640293,-0.7557278520791357,-0.5831335421876834,-0.9241618851262752,0.08262842728714088,-0.6352675941676726,-0.4434907247979419,-0.5940769714069599,-0.455500002013628,undefined,1491900202008
903d185fccf839df,0.1731705438680804,-0.5910143762679317,0.2318307272452558,0.17355872127529665,-0.4234427710476623,-1.8976276070577012,1.8941012428483057,-0.8594203074461635,-0.2709400470024149,-0.6940285912039341,0.21154917441353718,-0.4424937628191663,1.6979723707664884,-0.4715882783223707,-0.9707588123827583,0.03753462185085445,-0.7987614904283058,-0.5939755418962583,-0.9162484919513486,0.11125413821991294,-0.6323229913533758,-0.4512638641993399,-0.5942563075540105,-0.47008900077336613,undefined,1491900203298
903d185fccf839df,0.14267825130733386,-0.5910143762679317,0.23374488674831287,0.18236531816501983,-0.44803587205248085,-1.8973154888566337,1.8849810760562073,-0.9251122337493161,-0.2633748083323165,-0.6702017530643531,0.21224992005822477,-0.45391932607419666,1.43685940285205,-0.47251412919474006,-0.9697061822819615,0.041575826941925687,-0.7987614904283058,-0.6006061339873912,-0.917892742531836,0.1225565975813566,-0.6336361858092103,-0.44727476446308084,-0.5980988377248313,-0.47313853187660454,undefined,1491900203515
903d185fccf839df,0.0636754242982165,-0.5921884062641746,0.31668654638383015,0.17998355924835685,-0.4051239463045882,-1.900937455529174,1.8677532141867095,-1.0328772818989862,-0.2728587110810861,-0.637106391027362,0.19487214691743754,-0.5195633632744389,0.4750933043672015,-0.46232990558181003,-0.9707587902960569,0.025410950048197663,-0.7933996553831796,-0.6100358867299244,-0.9128620351934178,0.16608800195603393,-0.6298856287708526,-0.4508702144278781,-0.5910566779558627,-0.4833665823099275,undefined,1491900204801
903d185fccf839df,0.14267825130733386,-0.6362145895792632,0.3556050788185296,0.1937064394027503,-0.4100199376867928,-1.9085820185656235,1.8566080945375165,-1.1138806561333499,-0.26444432842891247,-0.5997745421600403,0.19401926381092735,-0.45886541783244983,0.3488887032085562,-0.4651074063958199,-0.9686535448189308,0.01934912827923004,-0.7933996553831796,-0.6138229869493449,-0.9119734402671335,0.1704457622192676,-0.6302261062934882,-0.4507655107711481,-0.5898542673222086,-0.4858643466217285,undefined,1491900204996
903d185fccf839df,0.26326154627374326,-0.6708485329244098,0.3721936140551926,0.26685934046596155,-0.5071272036390297,-1.9141908265261178,1.8799055407060656,-0.9981507771276013,-0.25932832381538734,-0.43491473689151045,0.15409507658537608,-0.322293435754191,0.8362995766488414,-0.47992078723978754,-0.9497061588311855,0.025410865254033056,-0.7610528057596619,-0.6292627033358466,-0.9082861209167734,0.20664750828468811,-0.631160204443609,-0.45112508955765895,-0.5805990002826882,-0.4991048757990681,undefined,1491900206319
903d185fccf839df,0.2604895196773117,-0.653238068366772,0.37027945455213557,0.26685934046596155,-0.5229157484750483,-1.914363190205588,1.879792458633368,-1.0024824068481717,-0.25330999595290266,-0.4455061141462008,0.15875429962415422,-0.29808004107670444,0.7144468582887701,-0.48547578886780723,-0.9328640183205661,0.021369660162961816,-0.7951314387057681,-0.6334234471381097,-0.9066208796956758,0.20706326640597408,-0.6328461224120211,-0.45336900794629587,-0.579558643716905,-0.5006573441233264,undefined,1491900206494
903d185fccf839df,0.19257483355933014,-0.6467808887734406,0.40728433575767675,0.28199727771473915,-0.4979729363715995,-1.926612658966445,1.8707853760090107,-1.0642492107936443,-0.22077638056759058,-0.5580277649566426,0.13533641504303134,-0.2320285991453422,0.2531472816399287,-0.4864015879370784,-0.9328640183205661,0.005204839798676869,-0.8137506748314047,-0.6369318976419416,-0.8998969445899985,0.19897908235820128,-0.6359037466551817,-0.45249706124628314,-0.5657713764378131,-0.4959240338143042,undefined,1491900207821
903d185fccf839df,0.19257483355933014,-0.6467808887734406,0.43280476821877456,0.29715511118659416,-0.4870906687328548,-1.9263494549588374,1.8725499746568783,-1.048268711936898,-0.2160471302088171,-0.5522524065832192,0.1370681563454514,-0.26952092245028414,-0.03842886586452762,-0.48362408712306854,-0.9486535287303887,-0.03116606255040734,-0.8137506748314047,-0.6414409536288314,-0.9063480042060609,0.19956422341978317,-0.6396135485597279,-0.4579961102638133,-0.5712020247640252,-0.4928895774697771,undefined,1491900207997
903d185fccf839df,0.07892157057858977,-0.7301370769626623,0.4870355601301327,0.4578284541280286,-0.518040329495183,-1.9554928959983167,1.8662331814995916,-1.1274059129945468,-0.256969459302069,-0.6157677093211311,0.09873870746014717,-0.15598453140060256,-0.8391753008021391,-0.47806908549504884,-0.9581272217242613,0.021369660162961816,-0.810790344082404,-0.6490404868223715,-0.91580069572492,0.19780880047735883,-0.6457376687550573,-0.45546275908152833,-0.5883575858685972,-0.48887783250464,undefined,1491900209297
903d185fccf839df,0.06783339518204429,-0.7225058673730881,0.47937943039180336,0.4379404973439979,-0.5123523396990836,-1.9609153647561466,1.865657256112336,-1.1355355471613386,-0.25141037972218727,-0.6356157260704491,0.10102710820587185,-0.12443976227589294,-0.8348234180035651,-0.47992078723978754,-0.9497061441067178,0.03147268702300068,-0.826470574851231,-0.6512696831739868,-0.9143313652817741,0.19340484499894697,-0.6470453397308047,-0.45456588381697666,-0.5866070775592503,-0.4920346886308138,undefined,1491900209509
903d185fccf839df,0.051201304614274724,-0.7448124957576855,0.4168541167251643,0.34992233588397664,-0.5900710654894831,-1.9700017269083165,1.8638400572051084,-1.1734810035141476,-0.2235392773540578,-0.6930517648418781,0.09075484224389126,0.020923207799370964,-0.8739903631907309,-0.5141766349295005,-0.9497061588311855,0.03147277181716529,-0.8209259527078402,-0.6605221141856364,-0.9142194163689179,0.229237028602516,-0.6444508400737461,-0.46669651844501603,-0.5821871053777902,-0.5086653602874864,undefined,1491900210836
903d185fccf839df,0.03595502031226251,-0.7571397961042384,0.4442887086893192,0.35111596241755816,-0.5973841961418495,-1.9769684815344188,1.8683922517145275,-1.1547557294038482,-0.23900080316713146,-0.6790940069941322,0.08966599646918354,0.012992293262531937,-0.8739903631907309,-0.5262125084840711,-0.9328640183205661,0.02743156672609405,-0.8291193406599388,-0.6690652553005615,-0.9094895721856988,0.23468807820972745,-0.6463323690514917,-0.46525971036050123,-0.575436975464456,-0.5119760400161725,undefined,1491900211045
903d185fccf839df,-0.02918757019846811,-0.7900126652270285,0.4800173141348561,0.4381157069405635,-0.6606206620064771,-1.983739580198505,1.8761764757282893,-1.0975462068192692,-0.2618961911280096,-0.6289333586814111,-0.005458234559225039,0.0000802380525047443,-0.9044535427807487,-0.5271383399302786,-0.9233903400511609,0.08602911120843083,-0.8279805094407261,-0.6664560829594827,-0.9091887096299719,0.2389380485067119,-0.641677802124559,-0.47789720396385466,-0.5953094771034195,-0.5197768200625337,undefined,1491900212292
903d185fccf839df,-0.06106597957365962,-0.7994049051969707,0.4870355601301327,0.4578284541280286,-0.6860777625147749,-1.991535543701664,1.876471011621174,-1.1119646415914821,-0.27716627696539836,-0.6361804007455382,0.00028736404695867146,-0.01117824756383466,-0.865286597593583,-0.49195659604048536,-0.9139166176083531,0.08602911120843083,-0.8239975547185526,-0.6595531742071721,-0.9030804938508568,0.23561198418261536,-0.636768126274364,-0.47386550221111023,-0.6000977982129257,-0.5254810316188012,undefined,1491900212496
903d185fccf839df,-0.17056113364893324,-0.8129062501537626,0.5527502925120354,0.5430908815307683,-0.7366113934151225,-2.002517906653732,1.8855727703127878,-1.074380790434972,-0.2853804028982104,-0.6643105571533726,-0.001964738889274665,-0.030654705166762292,-0.9131573083778967,-0.5030665992965248,-0.9307587581189725,0.1062352779873947,-0.8269351021016789,-0.6449114085856051,-0.9074535001961175,0.25324320444747284,-0.6296920134449266,-0.463267302079526,-0.6082795406477229,-0.5099699290144021,undefined,1491900213822
903d185fccf839df,-0.2509499049454469,-0.8082101301687915,0.5706145952348038,0.5511924108576066,-0.7853141689022738,-2.00136959190824,1.8802053388246824,-1.1366012413001643,-0.29460522440803494,-0.5153526175116157,-0.01397708195579137,-0.029829247864848172,-0.9044535427807487,-0.5215833059253225,-0.9318113882197693,0.10825583813584802,-0.8289909457387298,-0.6471532708799419,-0.9077683567895579,0.23753679014610965,-0.63386412091719,-0.4609020741272081,-0.6038699579679423,-0.5074108669466,undefined,1491900213986
903d185fccf839df,-0.32025070787787346,-0.799991920195092,0.6459003792689413,0.6494208557232989,-0.8700888820328471,-2.0095894767397513,1.902030096101111,-1.024392343335799,-0.29271852114067837,-0.6068956482407968,-0.01266553371312832,-0.04521821637256928,-0.8957497771836007,-0.5317674453582181,-0.9202324276620691,-0.05541337789099937,-0.8466052929625753,-0.6222584690958675,-0.9025627299560897,0.0774237553918334,-0.6577997661536661,-0.4619621399657842,-0.613015968346899,-0.4893319848606118,undefined,1491900215308
903d185fccf839df,-0.3327248275618152,-0.7988178901988493,0.6459003792689413,0.6494208557232989,-0.899269404064861,-2.0059698389199974,1.9082679941069667,-0.9886381867108445,-0.30146870917647517,-0.597245201862063,-0.009217057825755262,-0.05208555972134959,-0.9305648395721926,-0.5225091308961428,-0.9170745299974449,-0.061475227924688534,-0.8539357486563829,-0.6170211245030277,-0.9029895353889817,0.06973993134299554,-0.6563001540841493,-0.46427293307517037,-0.6158044335552273,-0.4870281815912498,undefined,1491900215525
903d185fccf839df,-0.37569123980650354,-0.799991920195092,0.7537243334855542,0.6851335698261273,-0.9127642396015979,-2.0098526808121417,1.9206885741973974,-0.9109816664644367,-0.2933614774195466,-0.5780410269139201,-0.01330018650359313,0.011755104249728242,-0.9305648395721926,-0.5169541227927358,-0.9128640022320238,-0.09784615853849428,-0.8391636285879152,-0.6210868750193865,-0.9007785433782831,-0.002571169442052249,-0.6716771996183146,-0.4555063834512917,-0.616441911159688,-0.46565690056584597,undefined,1491900216807
903d185fccf839df,-0.38400731959579804,-0.8093841747790305,0.7569142604747167,0.703471708766033,-0.9053173952738321,-2.00699237502543,1.9275891847711353,-0.8630403106665897,-0.29863725741255753,-0.5573885391720078,-0.0026321200767176825,0.038312587173062844,-0.9175091911764707,-0.5206574485775659,-0.9118113868556945,-0.09380495344742304,-0.8345267224661671,-0.617033790844389,-0.8985465608370813,-0.0066671557422920994,-0.670586745540107,-0.4552781171284976,-0.6119820272453786,-0.459254399083055,undefined,1491900217008
903d185fccf839df,-0.4061834978618403,-0.7518566465071498,0.8755842714188214,0.8839988215389525,-0.9689755722423926,-1.9850975260269204,1.9010912620259592,-1.0284105950467681,-0.30381159074563435,-0.4861565367029989,-0.011794974616828168,-0.036158977935029965,-0.8304715352049912,-0.5252866187593781,-0.9139166396950544,-0.11805215572912893,-0.8369390293798031,-0.6098079026510781,-0.8912139031361965,-0.018231389820618924,-0.6660360380454333,-0.4579250866746236,-0.6163134646039593,-0.45796289587207667,undefined,1491900218293
903d185fccf839df,-0.4311318752513628,-0.7512696315090284,0.8768608013157753,0.9042471606424674,-0.9779755572970905,-1.9866930548037192,1.9283860188869464,-0.850211755580021,-0.30470929599938035,-0.4700313499409736,-0.021802906120461,-0.007068162671402019,-0.9349167223707665,-0.515102440474159,-0.9254956076149883,-0.11805215572912893,-0.8348438611705145,-0.6063184506682251,-0.8913888232918893,-0.018385374302006433,-0.6649299286612745,-0.45607176791969795,-0.6206229597496844,-0.45619899553123694,undefined,1491900218505
903d185fccf839df,-0.4976604790603092,-0.7495085865146642,0.8972768931477041,0.9094506371560358,-1.0104372171965093,-1.9889640632680972,1.9367014668666906,-0.8027162094902988,-0.3213277848130879,-0.4495206188406973,-0.037502521588838086,0.0033139687472261,-0.8304715352049912,-0.5438032994866268,-0.9391798430987497,-0.13219647247440364,-0.8420559690736104,-0.6072493929458684,-0.8868269025024228,-0.04112887759344312,-0.6679562338271753,-0.4662652931994674,-0.6119996636259198,-0.4644066947057447,undefined,1491900220358
903d185fccf839df,-0.4976604790603092,-0.7495085865146642,0.8972768931477041,0.9094506371560358,-1.0104372171965093,-1.9889640632680972,1.9367014668666906,-0.8027162094902988,-0.3213277848130879,-0.4495206188406973,-0.037502521588838086,0.0033139687472261,-0.8304715352049912,-0.5438032994866268,-0.9391798430987497,-0.13219647247440364,-0.8420559690736104,-0.6072493929458684,-0.8868269025024228,-0.04112887759344312,-0.6679562338271753,-0.4662652931994674,-0.6119996636259198,-0.4644066947057447,undefined,1491900220376
903d185fccf839df,-0.4865724761908124,-0.7383553015503579,0.9706477552679361,0.8968486634685013,-1.0515594331280909,-1.985288523652751,1.9207516873854815,-0.9170544425760568,-0.3246325844775851,-0.4353757924520898,-0.048035222267098436,0.018735384637348373,-0.8304715352049912,-0.5567650044874048,-0.9307587581189725,-0.0938049251827015,-0.84048618969715,-0.6045135617644617,-0.8862951451082437,-0.05514146292263908,-0.6689601160005287,-0.45756866308434274,-0.5990486924771892,-0.4538184104329516,undefined,1491900221295
903d185fccf839df,-0.4865724761908124,-0.744225466145568,0.9980826013690404,0.9339194079532415,-1.0536988585762133,-1.9842100858418787,1.9143428495356845,-0.9593567340535172,-0.3227316203942069,-0.4527759602977667,-0.046232782429262424,0.0007365497738161988,-0.8609347147950089,-0.5632458310862448,-0.9307587581189725,-0.09178429437244436,-0.8451230958188981,-0.6063184506294684,-0.8852526201346922,-0.05860611312112895,-0.6704105803727227,-0.4579887523563583,-0.5940088758023256,-0.4589741451969548,undefined,1491900221499
903d185fccf839df,-0.35628708813689275,-0.7935347990577453,1.0082907743534795,1.0057265800659454,-0.9960886679053449,-1.98611540368427,1.9258955881979818,-0.8710637278304925,-0.3408564766702119,-0.39064570757041067,-0.04712475674245629,-0.006873715022941246,-0.7608414104278075,-0.5900950272062976,-0.9149692624336174,-0.07561945987579863,-0.8648172003649016,-0.6038296043788233,-0.8831955577430661,-0.10278425285074114,-0.6746999910507729,-0.44928276452162685,-0.6119952171161078,-0.48419025923825715,undefined,1491900222847
903d185fccf839df,-0.33133871074737026,-0.7800334394869572,1.0778338257414963,1.006206403291313,-0.9805366937431179,-1.9878320530580509,1.93409269345058,-0.8136500949217284,-0.34628858750746955,-0.35395491999393236,-0.04988137743322971,-0.022109101088385368,-0.7608414104278075,-0.5854658505490982,-0.9139166396950544,-0.09380491105034074,-0.8624232935298329,-0.6010367760897501,-0.888534124545961,-0.11590372788633425,-0.6766364931243741,-0.45030525856677134,-0.6102261051372978,-0.4912916604151917,undefined,1491900223009
903d185fccf839df,-0.34658499504938245,-0.7776853794944717,1.0995261933334295,1.027331515201196,-0.9826144038046959,-1.9963757018839785,1.9153106166865452,-0.9692347120439375,-0.3397978021336063,-0.43996165343514343,0.00007991509205972885,0.035038730036673515,-0.7390819964349377,-0.5752816852146535,-0.9233903032399919,-0.22514438742209283,-0.9196190886911836,-0.5914866971239031,-0.8974270705156921,-0.22466295020050084,-0.69716699763506,-0.455072165101399,-0.5740077231131899,-0.5417312992136718,undefined,1491900224305
903d185fccf839df,-0.45469403231021116,-0.7788594094907144,1.0287073744593072,0.9701546807642725,-0.9970040945636702,-1.9953694706215963,1.9003365021467624,-1.070853274279832,-0.3359555067749572,-0.4498240136477488,-0.001944024913520715,0.023449616157159296,-0.8217677696078431,-0.5706524956066795,-0.9318113734953016,-0.2514123194405813,-0.9196190886911836,-0.5836275141642129,-0.8992952189647114,-0.23377882909696382,-0.6954208375990599,-0.4545571719063109,-0.5792303132706639,-0.5391659348966746,undefined,1491900224495
903d185fccf839df,-0.4158857289709896,-0.7817944844813214,1.0842141879937202,1.021801274525192,-1.0543879982952744,-1.994535603183653,1.930831740821985,-0.8731759099870234,-0.3277304305856469,-0.48479245993289893,0.004434343827017503,-0.005713179382771615,-0.8304715352049912,-0.5725041973514182,-0.9728640725843519,-0.35850452286882367,-0.9018325884747678,-0.5576054492526726,-0.8971541949282041,-0.2670394717994351,-0.6900774032778714,-0.4307186579011314,-0.5849069578356507,-0.5336578356971082,undefined,1491900225787
903d185fccf839df,-0.4255878565639096,-0.7770983644963503,1.0299831419454126,1.0315706004172531,-1.0452851558740883,-1.9941675832812231,1.9059721819683344,-1.0368527236169285,-0.32524737251047114,-0.4529338866639434,0.0011313406025000687,-0.05784113206504302,-0.8304715352049912,-0.5808366868426732,-0.9623377421274486,-0.36860757799358407,-0.9165626249122515,-0.5600752972314887,-0.9011633674198478,-0.2738147872573088,-0.6931061540132232,-0.43219778311676427,-0.587501066294261,-0.5422480816014599,undefined,1491900225998
903d185fccf839df,-0.4255878565639096,-0.7770983644963503,1.0516755095373458,1.007837755411128,-1.034084031553132,-1.9944005071794515,1.9240757647248998,-0.9113598039236283,-0.3323463763137903,-0.4630001177788283,0.019824769030788676,-0.08101792772972194,-0.8217677696078431,-0.5789849980487091,-0.959179859187292,-0.37264875481993376,-0.9048890522536999,-0.5391512510113325,-0.8939776425699785,-0.2811598454794035,-0.6807321555220462,-0.4286140934480441,-0.5566852542215467,-0.5492546743147324,undefined,1491900228221
903d185fccf839df,-0.4255878565639096,-0.7770983644963503,1.0516755095373458,1.007837755411128,-1.034084031553132,-1.9944005071794515,1.9240757647248998,-0.9113598039236283,-0.3323463763137903,-0.4630001177788283,0.019824769030788676,-0.08101792772972194,-0.8217677696078431,-0.5789849980487091,-0.959179859187292,-0.37264875481993376,-0.9048890522536999,-0.5391512510113325,-0.8939776425699785,-0.2811598454794035,-0.6807321555220462,-0.4286140934480441,-0.5566852542215467,-0.5492546743147324,undefined,1491900228240
903d185fccf839df,-0.4297458964585568,-0.7835555294756855,1.1059065555856533,1.053599422202674,-1.0521765718856009,-1.9934618237017177,1.9154263343240765,-0.9730813495067087,-0.33628269736628114,-0.4186726448480764,0.02099072593020449,-0.16226954508153196,-0.847879066399287,-0.5567649915366303,-0.9486534919192197,-0.37264875481993376,-0.8908099300805885,-0.5319886911363889,-0.8879323977523151,-0.28177578421269206,-0.6753176476815107,-0.4306816216283283,-0.5535526603684612,-0.5483576956587749,undefined,1491900228849
903d185fccf839df,-0.4255878565639096,-0.7835555294756855,1.1301509664236962,1.0531151755988555,-1.0338474606872905,-1.993363995749703,1.9274129910816364,-0.8888145774554598,-0.3296086017877549,-0.37328709388953846,0.026630558333083088,-0.16477283907983392,-0.7173225824420678,-0.5456549882805909,-0.9433903487774694,-0.36456631637306974,-0.8769443077841054,-0.5262067135312467,-0.8870368059601004,-0.27259831088825315,-0.6706137674235558,-0.4254680766025444,-0.5333353227487392,-0.5389380121278137,undefined,1491900228996
903d185fccf839df,-0.4948885214746972,-0.7882516494606566,1.1441874584142495,1.1701559163962634,-1.01710234708497,-2.0013416403984055,1.9294063842021236,-0.8764279720753768,-0.33761723678501115,-0.3611512120343942,-0.013454581610802504,-0.19219917818638454,-0.7390819964349377,-0.5289899833965318,-0.943390363501937,-0.3241542089329143,-0.8832516789980874,-0.5121222463165738,-0.8953420207459841,-0.27312185942004463,-0.6650078151987402,-0.42777903833973996,-0.5459636616496171,-0.5292374482722596,undefined,1491900230307
903d185fccf839df,-0.49350250817648145,-0.7823814848654466,1.1186667718162022,1.1683192529219635,-1.0286943280254226,-2.0006358809131295,1.908951754006493,-1.012294579779438,-0.3348572128525045,-0.350646023790601,-0.015938945405689364,-0.18504396255168887,-0.7303782308377896,-0.5447291633097706,-0.9476008839051242,-0.3241542089329143,-0.9018843195829085,-0.5185438512829624,-0.8982037163761938,-0.2708120921992325,-0.6688266807043199,-0.42865122772937375,-0.5468424813082245,-0.5323344779506889,undefined,1491900230516
903d185fccf839df,-0.4214296786476234,-0.7900126944550209,1.2054364963208841,1.1976641755098896,-0.9920052461030526,-1.9966202721219057,1.9280178479733183,-0.8720092021785367,-0.31451475882048063,-0.31378281616002984,-0.017329971681013207,-0.19497699237272806,-0.8870460115864528,-0.5188057921605381,-0.9318113882197693,-0.28374205909567657,-0.9047876690834576,-0.5066252516696774,-0.8947542885344703,-0.2461129860264842,-0.6594118006914177,-0.4173424635259276,-0.5052222558528904,-0.5133768170748895,undefined,1491900231801
903d185fccf839df,-0.4214296786476234,-0.7958828444362347,1.2028839448008755,1.214531288710539,-0.9854429713725045,-1.9911605353834672,1.9327041619356224,-0.8336421253555905,-0.32561653557865805,-0.2871022814356518,-0.03343836700756761,-0.18291714840518594,-0.9131573083778967,-0.5188057921605381,-0.9265482229913176,-0.3160717987507718,-0.8988695035998797,-0.5064922596918888,-0.8958317973972444,-0.25441274821626886,-0.6607166095556001,-0.4170708586387949,-0.5050076247141077,-0.5102165611051623,undefined,1491900232001
903d185fccf839df,-0.3659891467189933,-0.825233594342304,1.0350874825745817,1.0241990160291594,-0.9537835957260561,-2.0091515793468386,1.943846646019982,-0.7717245721861039,-0.33038786660642805,-0.34085095718627295,0.0033002299028303725,-0.071138709914475,-0.9827874331550802,-0.5271382946025677,-0.9265482229913176,-0.2817214565501409,-0.8988695035998797,-0.5030978014101901,-0.8966154406680947,-0.25496709174076754,-0.6599675097216463,-0.41862933760105103,-0.514947549358971,-0.5071899346022928,undefined,1491900233306
903d185fccf839df,-0.3590590802279145,-0.8193634443610902,1.0350874825745817,1.0241990160291594,-0.9431790421494132,-2.008233858943692,1.9356022032575173,-0.8226457421172755,-0.3267526279583662,-0.35017463791723963,0.0008588824633362135,-0.021061534182692115,-0.9827874331550802,-0.5271382946025677,-0.9391798283742822,-0.3221336205197394,-0.8925513732937397,-0.501489233328566,-0.8971541951973547,-0.2591092734177331,-0.6612927272270291,-0.4119133641532079,-0.5175203089714504,-0.500869893430969,undefined,1491900233505
903d185fccf839df,-0.38677934619222953,-0.8211245331974428,0.8117834444030264,0.8101165080066091,-0.9386019078175162,-2.0120934084232713,1.9703971721670837,-0.5975254279068247,-0.3159648382659524,-0.32332710987303687,0.01755867180127043,0.11570057521823947,-0.8609347147950089,-0.546580787349862,-0.940232458475079,-0.37466937149783014,-0.8583541952787924,-0.4833770148043283,-0.8919905492903172,-0.2790502598533426,-0.6561685259296168,-0.38512296701572296,-0.5089897466176512,-0.48499594470168006,undefined,1491900234787
903d185fccf839df,-0.43944785152442817,-0.8146673097621229,0.7403262335119526,0.7739778163059566,-0.9637812940076456,-2.0065940744980773,1.9652979785372258,-0.631646146346812,-0.3179424978062305,-0.2993525407897464,0.0056708550629374944,0.15037351665321402,-0.6346368092691622,-0.546580787349862,-0.9486535360926224,-0.3665869330509661,-0.8583541952787924,-0.48692979596926855,-0.8931100391039902,-0.285194239196004,-0.6590387283444301,-0.3857790136927305,-0.5208430154013475,-0.4864731688728932,undefined,1491900234995
903d185fccf839df,-0.38677934619222953,-0.8005789498072097,0.8213532253705139,0.799485562965793,-0.9609115885249523,-2.0006754776024622,1.980230016221591,-0.5214819225016125,-0.29690130158197076,-0.4140030541107309,0.022850392876528448,0.13800984472028432,0.15740586007130128,-0.5363966479169666,-0.9591798518250582,-0.2938450718233546,-0.8661283364675555,-0.47664509560328394,-0.9042209745008859,-0.2869342636795197,-0.6597107997299325,-0.3649279753656527,-0.5064931274123168,-0.4787943530878831,undefined,1491900236355
903d185fccf839df,-0.4117275855601131,-0.8005789498072097,0.8213532253705139,0.799485562965793,-0.9749515647724071,-2.0008455121319604,1.9826915143586068,-0.5080315975295273,-0.29755290917629684,-0.40525656258913706,0.02310725218752375,0.13553377347281984,0.15740586007130128,-0.5363966479169666,-0.9623377494896824,-0.2938450718233546,-0.8661283364675555,-0.47471988081394345,-0.9055573654945555,-0.2860411538167106,-0.6595111497367607,-0.3631453886888857,-0.5064996091224451,-0.48102167343407376,undefined,1491900236513
903d185fccf839df,-0.3784632318975253,-0.8152543393742405,0.8277335876227379,0.8094872211408989,-0.8692351696627802,-1.9980550838851119,1.9932107355458433,-0.41888396910326314,-0.2952580752468608,-0.34881752009123457,0.036072608789663826,0.1561204152476839,-0.22991170900178254,-0.5012149882072079,-0.9728640873088196,-0.287783250054387,-0.8432619168539777,-0.47127475922090223,-0.9012333362626618,-0.2986062854355034,-0.6587770976890956,-0.3627099162032817,-0.5002735763682142,-0.474030343245803,undefined,1491900237799
903d185fccf839df,-0.3784632318975253,-0.8146673243761191,0.7945565171494118,0.7743064491223121,-0.8859494264600598,-1.9987701601949757,1.9890714186089338,-0.45554633353860047,-0.29497482447305234,-0.2801472178402811,0.018924105606770658,0.10310319808405938,-0.5737104500891266,-0.5002891632363876,-0.9697061896441953,-0.2938450718233546,-0.8497935494177419,-0.47684141650847317,-0.898441608851326,-0.29779016797493546,-0.6602915758532893,-0.36309387081699546,-0.4997314177127475,-0.47674903398744917,undefined,1491900238000
903d185fccf839df,-0.2703541256258772,-0.8158413543723618,0.7454303200041721,0.735653710251239,-0.786157598077954,-2.0009969126317415,1.9836776869911479,-0.4725264571191777,-0.28163972941766746,-0.3308560901414188,0.026678330626327375,-0.004096803623908734,-0.5737104500891266,-0.49751164947160326,-0.9391798430987497,-0.29788629104678666,-0.8321699421654953,-0.46891890433901245,-0.9021988962492822,-0.2958653621191398,-0.6557696401217987,-0.36154250403874744,-0.49531394548274,-0.4721867135070849,undefined,1491900239299
903d185fccf839df,-0.2703541256258772,-0.7982308898147241,0.7371357982488912,0.7104953848892946,-0.7878650229581241,-1.996755368197685,2.006049445483059,-0.3203396803593886,-0.28622792219346127,-0.3628261364876817,0.02067836206177072,-0.04079972052935358,-0.5258397393048129,-0.47158826537159615,-0.9402324658373127,-0.2898038667322834,-0.8204339553033332,-0.4584822129150572,-0.9024437846238488,-0.28938261635739393,-0.6502429386674482,-0.35982474850176777,-0.491549613190947,-0.46999297504661447,undefined,1491900239506
903d185fccf839df,-0.2772841576115462,-0.7994049198109668,0.7224619307891841,0.622092944816541,-0.8097529823189598,-1.9966458932418354,2.008713437963015,-0.30879440901562716,-0.29196532148972953,-0.4340538615505976,0.01996836693998448,-0.17952845894480982,-0.2560230057932264,-0.46140412593870067,-0.9581272290864952,-0.29990689359232225,-0.8185289444535893,-0.45366917450217276,-0.9040670448145256,-0.24974701666128066,-0.6415757076423579,-0.3673385496023682,-0.45160406630577643,-0.475788197390729,undefined,1491900240791
903d185fccf839df,-0.2703541256258772,-0.7988179048128454,0.7224619307891841,0.622092944816541,-0.7850878804806234,-1.9952926053545665,2.002628065415486,-0.3419506617298432,-0.2852040783021219,-0.4056916494983907,0.03192831326593476,-0.16045545445289364,-0.2560230057932264,-0.4586266510262399,-0.9549693314218709,-0.29182442688073673,-0.8085739005330567,-0.4405536484840306,-0.9015621865329093,-0.24257134116408488,-0.6330416189853745,-0.3529772195880352,-0.4142788288395216,-0.45711569487512377,undefined,1491900241017
903d185fccf839df,-0.2772842611277754,-0.7905996802251499,0.6554704143733782,0.5608010379283512,-0.7143120005452825,-1.9974518097421166,1.9943546963862029,-0.382794613013281,-0.29674753920288466,-0.29708059423540384,0.033905694975676824,-0.150156972102883,-0.35611631016042783,-0.46232995090952095,-0.913916654419522,-0.27970083987224453,-0.8085855421938621,-0.43368873672384783,-0.9086219689888613,-0.2335170549724222,-0.6327351786928461,-0.3357325317623724,-0.3924299112238048,-0.4480192257969279,undefined,1491900242279
903d185fccf839df,-0.2675821335348554,-0.7905996802251499,0.6025153899481256,0.6810471552294024,-0.7653702021406301,-1.9982973238622468,1.9688797645695808,-0.5653508479726356,-0.3058593592129494,-0.35199968724910735,0.019041783504273744,-0.14999931962645266,-0.4779690285204991,-0.46232995090952095,-0.913916654419522,-0.27970083987224453,-0.7945286412848044,-0.4350819843328741,-0.9098114268011941,-0.23481052401296568,-0.6337471774305521,-0.3342700810850936,-0.3919152953225746,-0.44794536034476323,undefined,1491900242492
903d185fccf839df,-0.2537220005526979,-0.7765113202702366,0.5897551737175767,0.6691701518681793,-0.7237645581261566,-1.9985675156350755,1.968130270058681,-0.5645255963276506,-0.29173240893547864,-0.26512363138613804,0.020231744629317528,0.04774352814623013,-0.669451871657754,-0.4697366413315048,-0.920232464473238,-0.29990690772468304,-0.8014087449132326,-0.4210545134175143,-0.9026326982422513,-0.1976232790948469,-0.6215717813691259,-0.328692856653029,-0.3603811095508344,-0.4202781749254233,undefined,1491900243853
903d185fccf839df,-0.26896814683307113,-0.7741632602777511,0.5846510872253571,0.6267992372443366,-0.7146617158810166,-1.9964712002900762,1.9745890726030046,-0.5179112184261969,-0.28956357121516385,-0.2855921939105859,0.021649727772880028,0.06078115697576735,-0.6346368092691622,-0.4697366542822793,-0.921285087211801,-0.28980385259992264,-0.7989589123213833,-0.4158804983168152,-0.9047107512500193,-0.1914946978341496,-0.619255553233543,-0.3268989300577958,-0.35961977716647053,-0.41828263596007453,undefined,1491900244077
903d185fccf839df,-0.2162995034792336,-0.7542047211136315,0.6382439953936625,0.6715157194895608,-0.6942240390324043,-1.983797809990663,1.9386974814104672,-0.7368077908539652,-0.2921946540523927,-0.025560024161785055,0.012146886432124412,0.04605120332175,-0.3038937165775401,-0.4688108163606845,-0.9244429848764253,-0.28778323592202626,-0.7686678016728139,-0.40854061696013777,-0.9035072995896017,-0.18276378066618532,-0.6146847117125641,-0.32481281974106446,-0.31816409434743653,-0.3952431897860707,undefined,1491900245300
903d185fccf839df,-0.1899652508131343,-0.7559657661079957,0.7148052927769559,0.6650630931679092,-0.665105231634739,-1.9873592167706244,1.9556045051623565,-0.6205194631073918,-0.28717305356755213,-0.0518364359084854,0.023274220159773595,0.01912608044953708,-0.3038937165775401,-0.4697366542822793,-0.9244429848764253,-0.27161835902829823,-0.7571600294236398,-0.4070143774176163,-0.9038221560851694,-0.1730011658628326,-0.6127666577337796,-0.32492930548515636,-0.3183394578674366,-0.39559480819073645,undefined,1491900245500
903d185fccf839df,-0.24263389416697184,-0.7418773915390862,0.5878410142145196,0.6288213649799091,-0.679062919169069,-1.9888825392598761,1.943699371788409,-0.7054889513728538,-0.2940023466983903,-0.006099877791009753,0.001051109964799168,0.11534827358356174,-0.5388953877005348,-0.4752916300087499,-0.9318114103064706,-0.2635359488461557,-0.7601938631488979,-0.4135753063088712,-0.9165493553451128,-0.18222483531788683,-0.6237108714295424,-0.321703509401634,-0.32688692562921906,-0.3878393399697018,undefined,1491900246845
903d185fccf839df,-0.2149135246864276,-0.7418773915390862,0.5316960628001044,0.6031786048945759,-0.6407384123998384,-1.991346874333343,1.93488689357284,-0.7524489166583866,-0.30006736217764146,-0.0009271389043580052,-0.0010762586777772036,0.14639717715901393,-0.6041736296791445,-0.4817724566075899,-0.9202324423865367,-0.2635359488461557,-0.7601938631488979,-0.41424026532855734,-0.912365262257348,-0.17979188107199665,-0.6229653287540695,-0.3230440725017657,-0.3290273865703433,-0.3825885752047337,undefined,1491900246993
903d185fccf839df,-0.1941233252131913,-0.7424644065372076,0.532334454817056,0.5831447487289062,-0.6187373054723034,-1.9888848689607275,1.9095566056605664,-0.9162832172464193,-0.30016677022397364,0.10248994486320853,-0.01701602332729682,0.009723479993372123,-0.7738970588235294,-0.5354708229461463,-0.9412850959381095,-0.22716504649707153,-0.7667227184252035,-0.4486408155281038,-0.9205655244518872,-0.16042063535433718,-0.6408538316928485,-0.32485224247656264,-0.3167569483483742,-0.3529673701561926,undefined,1491900248285
903d185fccf839df,-0.1941233252131913,-0.7389423165484793,0.532334454817056,0.5831447487289062,-0.6234275822175576,-1.9913212530421693,1.9092226221919661,-0.9207628414532915,-0.3016324222504922,0.10953985930584088,-0.016448965410335328,-0.02876126952121956,-0.7738970588235294,-0.5058441130613092,-0.9370745608104547,-0.20897952466072559,-0.7561873091163106,-0.44081329735324065,-0.9251834197528355,-0.1604360337055472,-0.6371360681168072,-0.32607301224813856,-0.32280380712887496,-0.3519866753864788,undefined,1491900248501
903d185fccf839df,-0.11234840259682298,-0.7048954320434426,0.5329723385601087,0.5893729465596554,-0.6008607596223,-1.9834996678527972,1.9152027984108622,-0.8595264616045193,-0.3321576468591018,0.31330062276182363,-0.0617920623144654,-0.0567556679060453,-0.6825075200534759,-0.5373224987893359,-0.9465482611665612,-0.271618373160659,-0.7712723668921372,-0.44480938530090164,-0.9243088185645286,-0.1728317822494211,-0.6439917906046535,-0.3272813110331353,-0.3300964891920952,-0.36481794170141735,undefined,1491900249795
903d185fccf839df,-0.2149135246864276,-0.7019603570528357,0.5329723385601087,0.5893729465596554,-0.6355132720226603,-1.9839329063899034,1.9126624051224148,-0.8860010444376104,-0.3271336518757159,0.2988637134385105,-0.06090751109633688,-0.06697268117593122,-0.7390819964349377,-0.543803351289725,-0.9465482611665612,-0.2635359488461557,-0.7722802806868432,-0.45176295751404466,-0.9242038664319636,-0.17580368226094126,-0.6482064651483005,-0.3265903006234167,-0.3249273918659202,-0.3642038369654416,undefined,1491900249998
903d185fccf839df,-0.16917508584530777,-0.7054824324275678,0.51766007908345,0.5591866092660376,-0.6131213109242668,-1.9956559674327305,1.9286069218541315,-0.7871967512901095,-0.3123858613313141,0.26104242138711464,-0.0507750164265428,-0.06375030008603468,-0.7869527072192514,-0.5169541163173486,-0.9570745916234645,-0.2635359488461557,-0.7654134515179124,-0.4503760426106191,-0.9211462599442803,-0.1813471233216446,-0.6466208055571825,-0.3293116856742857,-0.3381735762724242,-0.3692049576151389,undefined,1491900252482
903d185fccf839df,-0.16917508584530777,-0.7054824324275678,0.51766007908345,0.5591866092660376,-0.6131213109242668,-1.9956559674327305,1.9286069218541315,-0.7871967512901095,-0.3123858613313141,0.26104242138711464,-0.0507750164265428,-0.06375030008603468,-0.7869527072192514,-0.5169541163173486,-0.9570745916234645,-0.2635359488461557,-0.7654134515179124,-0.4503760426106191,-0.9211462599442803,-0.1813471233216446,-0.6466208055571825,-0.3293116856742857,-0.3381735762724242,-0.3692049576151389,undefined,1491900252502
903d185fccf839df,-0.23154568426501662,-0.6831758624989551,0.559768538507312,0.6050919183554789,-0.626513288376329,-1.9928562218394077,1.9211829788198456,-0.8366189157900658,-0.32237285623823175,0.3031098800339951,-0.06342303499491503,-0.02040270297202462,-0.6955631684491979,-0.5271383205041168,-0.9612851193888856,-0.28576266164121217,-0.7705242012189131,-0.45935615677838093,-0.9214471229526698,-0.1916178863131569,-0.6521001419806143,-0.33085723499536435,-0.33818544941871376,-0.3714571245038231,undefined,1491900252795
903d185fccf839df,-0.16778907254709202,-0.6655653540993288,0.5667867845025887,0.7461286449216032,-0.5997190475291023,-1.9926302857752607,1.9277759008170543,-0.7860148645907407,-0.3194654684349511,0.3610420409807061,-0.055489968447093016,-0.02989497176466599,-0.678155637254902,-0.5243607678870087,-0.9570745916234645,-0.2918244834101798,-0.7672319236368881,-0.45035704407303023,-0.9228604788353975,-0.17712794945783433,-0.6467116877021811,-0.3278806315072779,-0.32522864089398956,-0.36489282937724826,undefined,1491900252999
903d185fccf839df,-0.09433029873083768,-0.7060694328116931,0.5553023357581452,0.5795129433009092,-0.6373852672872458,-1.9789017494944947,1.9135854666619154,-0.8744791626549107,-0.3210061361398674,0.21199431486604126,-0.06237557699420651,-0.15135231673816568,-0.7695451760249554,-0.515102440474159,-0.9581272290864952,-0.2635359488461557,-0.7541619005025932,-0.45330186320968086,-0.9084960255978631,-0.15767971338420445,-0.6394686453290058,-0.3200198865957086,-0.3311917768633986,-0.3719097857858854,undefined,1491900254296
903d185fccf839df,-0.09433029873083768,-0.7043083878173289,0.7237376982752896,0.5466240767064434,-0.6402652629221379,-1.9757176797967237,1.9038788521261416,-0.9349545135834803,-0.3251837706059063,0.21034614050134984,-0.06952506916987336,-0.10011607229229562,-0.7695451760249554,-0.5234349947192867,-0.960232481925855,-0.25949471549036296,-0.7443568541895863,-0.4608190671277418,-0.9125821629051603,-0.14486820705560272,-0.6406652898094225,-0.32134972433908304,-0.33539179240511624,-0.3753145893547371,undefined,1491900254502
903d185fccf839df,-0.026415509096626873,-0.7078304778060572,0.5157459195803931,0.5331017127562833,-0.6037716115180911,-1.9714994272248052,1.922808196312857,-0.7897932091861598,-0.31600020791082867,0.375003547978896,-0.07401479528599655,-0.12592211593700856,-0.7913045900178254,-0.515102440474159,-0.9444429936027338,-0.25949472962272374,-0.7744361700604626,-0.45304221239710113,-0.9109589020538408,-0.14077222285548308,-0.6354840998425045,-0.32924666228884436,-0.3024693723842396,-0.3555831854870553,undefined,1491900255775
903d185fccf839df,-0.04027578010042333,-0.683175847884959,0.5553023357581452,0.6113201161862283,-0.6262664318554602,-1.9651755427224975,1.9241625487629608,-0.7829476540088064,-0.3261579435965774,0.4227241814886124,-0.07430560769872219,-0.12756316201577808,-0.669451871657754,-0.5076957889044987,-0.9444429936027338,-0.2635359629785165,-0.7574405394227897,-0.4534665194850697,-0.9119524492839679,-0.15561632442725098,-0.6375530601272719,-0.3289968776984044,-0.30384411924228494,-0.35242553254751274,undefined,1491900255988
903d185fccf839df,-0.11789249029509573,-0.6549991279751324,0.758190536234721,0.9078968193549735,-0.6554880932427337,-1.9625830994716622,1.9287489291461246,-0.7464818945793842,-0.3748685084100237,0.2921184805624989,-0.11501351658314131,-0.08091391222532815,-0.5301916221033868,-0.5012149493548842,-0.9539166939588403,-0.2635359488461557,-0.7856877210757817,-0.46396020678755157,-0.9210762900860341,-0.13527497696957103,-0.6409123504708099,-0.3284973888067078,-0.3131980969027304,-0.3571951439101939,undefined,1491900257306
903d185fccf839df,-0.1456127907648205,-0.6514770233724079,0.8239055227535731,1.021073408220375,-0.6676663586002972,-1.9639107658484927,1.9292854101002306,-0.7489177172044782,-0.36483451014607815,0.2943264913548096,-0.12091474012587618,-0.029126253927324375,-0.5301916221033868,-0.519731655983682,-0.9539166939588403,-0.2635359488461557,-0.7856877210757817,-0.46603107947525535,-0.9198938292130362,-0.12106221205150776,-0.6395491787518532,-0.3251586241559841,-0.2900849373569676,-0.34402222675442795,undefined,1491900257535
903d185fccf839df,-0.1761051178309768,-0.6291704096018066,0.8341136957380123,0.9339117214750458,-0.6513223857841127,-1.9483537771142296,1.9301400936071107,-0.7275531184320846,-0.38746784312249827,0.26803014589267105,-0.10419636700970988,-0.06919520118813781,-0.7173225824420678,-0.5086216009245444,-0.9465482758910287,-0.25949472962272374,-0.7849065537768924,-0.4606227457408626,-0.9175568947533668,-0.12642087066294616,-0.6345900397976673,-0.32949928529237726,-0.30175301798323034,-0.35827566848850495,undefined,1491900258818
903d185fccf839df,-0.1761051178309768,-0.6250613046149569,0.8341136957380123,0.9339117214750458,-0.6668023601370887,-1.948449275959763,1.9266740094994603,-0.7571593461253903,-0.3804293962425958,0.251704096661328,-0.10423157979345544,-0.0634821090702009,-0.7477857620320856,-0.5086216009245444,-0.9402324805617803,-0.25949472962272374,-0.7964028649435483,-0.45914083699786623,-0.9154718449775417,-0.12714459742391154,-0.6332033776871419,-0.32900935460129094,-0.30249636373331007,-0.3606834949520851,undefined,1491900259047
903d185fccf839df,-0.04859182538430811,-0.6191911400197468,0.7250139740352939,0.7779082583744497,-0.6792480571825807,-1.9508996352744619,1.9343819681652543,-0.7069418791416842,-0.40222824174582217,0.20569561257288946,-0.13922947953372625,0.047066810854693004,-0.8304715352049912,-0.5215833447776461,-0.9570745916234645,-0.19483527857725472,-0.8144240311642811,-0.4611040497759344,-0.9146462210310601,-0.09942739597061599,-0.6303834691948841,-0.3127603250093281,-0.2793022762793984,-0.3444662371710552,undefined,1491900260312
903d185fccf839df,-0.09987431741829095,-0.6215392146262286,0.7479823632502819,0.8439950592889255,-0.6966103145517157,-1.9484842142096201,1.9324753580353065,-0.7221707673588457,-0.40418423704384304,0.22412303886666546,-0.1418567013863722,0.06023563670712991,-0.8304715352049912,-0.5252866446609272,-0.9591798518250582,-0.211000141338622,-0.8162830809986242,-0.46375755317122497,-0.9170671176310928,-0.11454866958734158,-0.6342365319787376,-0.31320624606331804,-0.28383176360406887,-0.3440059393060458,undefined,1491900260487
903d185fccf839df,-0.15392887055411503,-0.6162560504151438,0.7377741902658428,0.7426727116027981,-0.7047977278499347,-1.9276957541653186,1.9239521623908258,-0.7735016220479998,-0.3586579181563922,0.1700095023706191,-0.10083034343454121,0.007819240951139826,-0.8957497771836007,-0.5410258116233915,-0.9528640564958096,-0.26757719633430926,-0.8162789945034864,-0.498240432424784,-0.9174169579485955,-0.14937995419651487,-0.6573358531623489,-0.32484557074292164,-0.35003381912002,-0.3628359262670696,undefined,1491900261808
903d185fccf839df,-0.14977083065946778,-0.6097988854358085,0.7377741902658428,0.7426727116027981,-0.7129234282902674,-1.924236834043227,1.9184085314518513,-0.8073046389513472,-0.3628407020479456,0.19376737152034118,-0.10952740857618713,0.050041425080649744,-0.9392686051693405,-0.5289899445442082,-0.9528640564958096,-0.2716184155577413,-0.8189628158188967,-0.5091837588390941,-0.9181586198158844,-0.14901039161350246,-0.6631684333489668,-0.3215126340756119,-0.34942272599380686,-0.3632800751674542,undefined,1491900262010
903d185fccf839df,-0.14977083065946778,-0.6379756199596313,0.7479823632502819,0.751830384378711,-0.7101565809742706,-1.924474415951462,1.913464499892675,-0.8472172478914681,-0.3805199966841467,0.2457277927361429,-0.1109212578589683,0.006989014245542013,-0.9827874331550802,-0.5215833188760971,-0.9633903722282454,-0.2534329078537561,-0.8237930831344955,-0.5127618720943339,-0.9172140502802453,-0.15421506505697574,-0.6640735542760516,-0.32766082682267017,-0.3582583158578937,-0.3680049364904056,undefined,1491900263293
903d185fccf839df,-0.14977083065946778,-0.6303444249840533,0.8111453065230243,0.8201402510833531,-0.7079040137209496,-1.9210574219785443,1.9091410998558755,-0.8716398596273577,-0.38340118500199577,0.24139292007082566,-0.1113370158017961,-0.0037242984990510037,-0.9827874331550802,-0.5252866187593781,-0.965495632429839,-0.26757719633430926,-0.8189435805906912,-0.5186831740063721,-0.9196769280024546,-0.17489517668553467,-0.6706064679276187,-0.3353456233758479,-0.3867598422620663,-0.3762793849034822,undefined,1491900263499
903d185fccf839df,-0.14422684647742423,-0.6221262150103538,0.7588284199777737,0.7598560212843551,-0.7814878891618484,-1.9084399337936535,1.9111108221263857,-0.8671913722259275,-0.38471456722588665,0.3405675031413845,-0.14154531787072597,0.04718390189712072,-0.9131573083778967,-0.5336191471029568,-0.9602324892880888,-0.267577153937227,-0.8298371144238522,-0.5400378606402043,-0.9214471212582439,-0.16480919470281985,-0.6794921758219304,-0.3439988378890565,-0.41622965218882857,-0.3863445541251697,undefined,1491900264804
903d185fccf839df,-0.12066462040775644,-0.6233002450065966,0.7588284199777737,0.7598560212843551,-0.7978215765950759,-1.908922086219786,1.9066874895579677,-0.8992435839198148,-0.38497748581750246,0.3586506819691668,-0.13885659421954738,0.06848291867835328,-0.9131573083778967,-0.5308416462889469,-0.9602324892880888,-0.26757719633430926,-0.8357578834491745,-0.5469471022697523,-0.9227975057146233,-0.1748951760797306,-0.6835981925387294,-0.35291311766329025,-0.42637436995574124,-0.3919093434162546,undefined,1491900265002
903d185fccf839df,-0.17471920804899024,-0.6180170954095079,0.8213532253705139,0.7537990626962922,-0.7680341967873626,-1.9218004499436643,1.9423003236784022,-0.6728791603407998,-0.3867286554981676,0.18131475298831662,-0.15866122157412463,-0.022057210379597427,-0.9131573083778967,-0.5465807743990875,-0.9581272143620275,-0.1766497991379911,-0.8384036705972409,-0.540538162880665,-0.9225876016758248,-0.14012548697551816,-0.6762071316467192,-0.3453020817851293,-0.38859085132693505,-0.37455192566934725,undefined,1491900266309
903d185fccf839df,-0.17471920804899024,-0.6297574099859319,0.7224614225152852,0.7432806077523875,-0.7481725153399583,-1.9143142749479691,1.9339533201521375,-0.717999282161071,-0.3919385535092335,0.18779414620387136,-0.1409017049836274,0.01363546384183487,-0.9131573083778967,-0.5391741487309765,-0.9591798518250582,-0.20291770289175798,-0.839506970990593,-0.5373210276032833,-0.9201737018927858,-0.14012548708321654,-0.674001208370205,-0.34681913042581564,-0.3890921478201111,-0.3761178420233954,undefined,1491900266479
903d185fccf839df,-0.1331387400916982,-0.6690874587020533,0.7033213523064114,0.6576929245703995,-0.7732799017688493,-1.9095300175845216,1.9189581629945573,-0.8114238268726383,-0.38197410871108967,0.1130213192389092,-0.15187248977260895,0.05351851841874012,-0.7260263480392157,-0.5049183010412635,-0.93075877284344,-0.25747414120954887,-0.8437419336178212,-0.5408864750652915,-0.9118125131337219,-0.18240961778061382,-0.6764608991641031,-0.35091454584609116,-0.39599350880921935,-0.38399618628982796,undefined,1491900267818
903d185fccf839df,-0.13729677998634546,-0.6561730995153905,0.7033213523064114,0.6576929245703995,-0.7669953408443362,-1.9138926824705913,1.9198680781355448,-0.8081993072803119,-0.3838958320211055,0.12041903508288082,-0.15262920998528548,0.042820796233562,-0.7260263480392157,-0.5067699509829039,-0.929706150104877,-0.25747414120954887,-0.8399796623080801,-0.5301521359916554,-0.9086499548621463,-0.18396486067645276,-0.6708063914513557,-0.3479703839781119,-0.3974630016591448,-0.38504323293991094,undefined,1491900268028
903d185fccf839df,-0.14422684647742423,-0.6843498486532094,0.6401581548967196,0.6456283593232739,-0.7505073671133119,-1.9130215465595997,1.9388421284573811,-0.672544838284202,-0.4108693927856446,0.2370203755059484,-0.1706749061996718,0.013871399897990196,-0.9044535427807487,-0.5095474647476883,-0.9086534597421352,-0.3140511679405147,-0.8467652885837326,-0.52646636295966,-0.8998759539983249,-0.15941973793503186,-0.6636732969093366,-0.3474104789177566,-0.38646707433648425,-0.3851806259472963,undefined,1491900269304
903d185fccf839df,-0.162245019354229,-0.6773056686757527,0.7683984550822107,0.7402304523088078,-0.7635804888434125,-1.906737259404419,1.9065954490555448,-0.8803804544884469,-0.4061100895830672,0.21216893108334667,-0.1816761621697011,0.056403927203723545,-0.8783422459893049,-0.5067699509829039,-0.9097061119296334,-0.3241542089329143,-0.8528846753785916,-0.5260483888873454,-0.9029895347711586,-0.15128935820090023,-0.6621810229399366,-0.34587333228001504,-0.39002135992018994,-0.39262714657875786,undefined,1491900269509
903d185fccf839df,-0.21352754589362158,-0.6467808595454483,0.725013465761395,0.7467162153150614,-0.7443050930694461,-1.909599893786598,1.952877397399273,-0.5645918646309903,-0.4152354364961516,0.3087750383729691,-0.18273304053934894,0.09526891948769253,-0.6041736296791445,-0.49010494609884486,-0.892863971419014,-0.17867040168352671,-0.8410377917120214,-0.5034524468097907,-0.8925502932490094,-0.09152799095268137,-0.6364846609503392,-0.3423078228474237,-0.3677226479472584,-0.3555492568699911,undefined,1491900270772
903d185fccf839df,-0.20798349270075855,-0.6614562344984829,0.725013465761395,0.7467162153150614,-0.7533050780301198,-1.9110440222049596,1.963383474283039,-0.49769439086455797,-0.41460813080026726,0.3039950207736748,-0.18197564468444336,0.06891224554737535,-0.5737104500891266,-0.49195664784358356,-0.8960218838081058,-0.1907940734861835,-0.847289089540229,-0.5062579410748054,-0.8961116698934821,-0.09864207264116734,-0.64044548492688,-0.34272119293441394,-0.36281290061885657,-0.35144889625017145,undefined,1491900270978
903d185fccf839df,-0.005625378634210056,-0.674370608299142,0.9540599824421214,0.9045163161624276,-0.7301519722500721,-1.9316950568282558,1.953082528354568,-0.5690491829915223,-0.3969798317242019,0.35359931477828105,-0.17482103201243718,-0.045104532372999426,-0.7129706996434938,-0.4401099573482167,-0.9054955768019785,-0.174629224857177,-0.8323472665679614,-0.5032814570149111,-0.903829152186467,-0.10694183411744952,-0.6400737089450486,-0.3493087599315185,-0.4192614958358562,-0.36638189357373985,undefined,1491900272280
903d185fccf839df,-0.08601414993072369,-0.6773056832897489,0.9540599824421214,0.9045163161624276,-0.7396045274703316,-1.930865847835224,1.9479912246588622,-0.6057625815973438,-0.39331707257670284,0.30324450936434333,-0.15369089911023195,-0.045589058422723226,-0.7738970588235294,-0.46788491368521695,-0.9076008517280397,-0.17867040168352671,-0.8410776931726766,-0.5085567992144487,-0.9064809435515471,-0.11180774282462666,-0.644245159312911,-0.35124173990200175,-0.4213235757893882,-0.3671542993792622,undefined,1491900274238
903d185fccf839df,-0.08601414993072369,-0.6773056832897489,0.9540599824421214,0.9045163161624276,-0.7396045274703316,-1.930865847835224,1.9479912246588622,-0.6057625815973438,-0.39331707257670284,0.30324450936434333,-0.15369089911023195,-0.045589058422723226,-0.7738970588235294,-0.47251407739164186,-0.9054955768019785,-0.174629224857177,-0.8351790629887128,-0.5063466019097955,-0.9044868524455769,-0.10781954546750078,-0.6422759487017452,-0.3511192231053582,-0.42133954048679056,-0.36340405044662394,undefined,1491900274297
903d185fccf839df,0.029025057337412955,-0.6021676904602304,0.8717562065496568,0.9045163161624276,-0.6563623801556975,-1.9121038265673476,1.9282334949999025,-0.6718383693949299,-0.373032839927096,0.11437654922808813,-0.14106581107476893,-0.015524284309458047,-0.6868594028520499,-0.4826982815784101,-0.9076008517280397,-0.15240252619448136,-0.8321686272631653,-0.5161879962515826,-0.9067748095900163,-0.09557778171464769,-0.6443249335538702,-0.3636333993007824,-0.4325189895528075,-0.3693123178923543,undefined,1491900275293
903d185fccf839df,0.02625303074098145,-0.6156690354170223,0.9113131310013078,0.786726717522697,-0.64752696654169,-1.9156256362901187,1.956858933461016,-0.48403203918185467,-0.36747868545901274,0.05464093003841144,-0.1395605901289701,-0.06579602870704156,-0.6868594028520499,-0.4826982815784101,-0.9160219219833494,-0.14634070442551372,-0.8264170234767593,-0.5179992182706601,-0.911826507324362,-0.10187574592910344,-0.6482568946745493,-0.35945372781989565,-0.4290095054443388,-0.3658627149901982,undefined,1491900275495
903d185fccf839df,-0.09987431741829095,-0.6444327849389665,0.8060409658938552,0.7906053651333076,-0.6901508957892913,-1.916785597126145,1.9391235210943176,-0.6237757325645812,-0.34440714252120136,-0.07582877147343124,-0.0758022435806252,-0.2558801182943753,-0.4213945521390374,-0.4901049590496194,-0.9191798122857399,-0.1948353351066978,-0.8057585408774472,-0.5205577274498865,-0.9138275951616869,-0.12569714095373494,-0.6555884688085168,-0.3710059987449261,-0.45254383463984005,-0.3902290040849919,undefined,1491900276798
903d185fccf839df,-0.03057365250750333,-0.6514769795304194,0.8200772037474591,0.7928787990646406,-0.687702899714089,-1.9143445544801927,1.9483804387140473,-0.5616944558228465,-0.3446616301722404,-0.050673444213166864,-0.073890651575629,-0.28775703801654406,0.061664438502673814,-0.4882532832064298,-0.9202324423865367,-0.1948353351066978,-0.8032219862362361,-0.5262003802166128,-0.911483663609756,-0.12911559603128295,-0.6589743342277269,-0.36970567086879064,-0.4475173333942416,-0.3916313552381634,undefined,1491900276992
903d185fccf839df,-0.03195966580571909,-0.6567601145135118,0.705873395552521,0.5888115792120663,-0.6868800473118869,-1.9187864137225583,1.9431024153060965,-0.6111609584632752,-0.33660363641613367,-0.09986036293144553,-0.014967754725611052,-0.29811706207248795,0.7057430926916222,-0.5132508164340676,-0.9097060972051657,-0.03116604841804657,-0.8048102472279353,-0.5488406537027256,-0.9075164718059777,0.015152440001166528,-0.63646413306548,-0.39618578609086885,-0.5137669710577344,-0.40249796335248933,undefined,1491900278297
903d185fccf839df,-0.03473169240215059,-0.6520639945285408,0.6337777926444956,0.5888115792120663,-0.6888343298972344,-1.9225830736956884,1.9397888587518155,-0.6373746440865156,-0.33003761758482697,-0.10877070862405587,-0.008531805957729077,-0.3136093330457219,0.9363928810160428,-0.5206574939052768,-0.9097061119296334,-0.03520726764147858,-0.7986980690471398,-0.5531280565335633,-0.9043819004598216,0.029596182112491803,-0.6355525696131308,-0.39637470002789926,-0.5136606994331953,-0.4001565079245864,undefined,1491900278507
903d185fccf839df,-0.10957651402203042,-0.5980586147013731,0.7569142604747167,0.7441691865543631,-0.6374469884933059,-1.8954404498261537,1.9561015490159646,-0.4970802462813243,-0.2883036575571535,-0.01614599676111734,0.0882252365181198,-0.3690188879245675,0.38370376559714797,-0.5623200061154245,-0.9076008443658059,-0.012980568978782931,-0.8259166109787592,-0.5765472820034089,-0.9046337857920743,0.07780871532984496,-0.638190000075917,-0.40972817970825154,-0.5184124478975565,-0.39470892267502566,undefined,1491900279833
903d185fccf839df,-0.12343664700418794,-0.5904274051117989,0.636968227907557,0.7119712347857169,-0.64957382407134,-1.8963511823444803,1.96216325280856,-0.4599992493593289,-0.2813118383185594,-0.028330845966132334,0.08574710965665493,-0.3642617041322417,0.19222092245989306,-0.5576908294582251,-0.9054955768019785,-0.006918747209815308,-0.8222898957570393,-0.574691729721863,-0.902380812653082,0.0814581471294741,-0.6360032846545772,-0.4120428104893872,-0.5168281764660633,-0.3945111405874641,undefined,1491900280025
903d185fccf839df,-0.1234366124987782,-0.581035106685872,0.5412663520414909,0.6082668119029895,-0.694481178129499,-1.885613389692404,1.9560673652372633,-0.5051998599574155,-0.2981394126675918,-0.24601925096596539,0.1498086254177643,-0.3099911855735699,-0.20815229500891266,-0.5521357889778817,-0.9023376791373543,0.06178190892672494,-0.7918362246271694,-0.5902897700324994,-0.8977489237426146,0.12277217721768478,-0.6322902938884677,-0.42032995823824987,-0.5493330271626146,-0.4065855659996367,undefined,1491900281285
903d185fccf839df,-0.12759465239342546,-0.6033417496844656,0.5323339465431571,0.537134398081606,-0.7039645902828325,-1.8852430406689966,1.9710598899725744,-0.4104127812864196,-0.2927425718035851,-0.27911000281129333,0.15969501917659285,-0.3066758483133008,-0.24296735739750447,-0.5650974939786598,-0.9012850416743237,0.06380246907517825,-0.7966344350690672,-0.5931839252764576,-0.8980847707380998,0.1163048308302845,-0.634527946378069,-0.419485269215381,-0.5576325052517239,-0.4062109930065096,undefined,1491900281481
903d185fccf839df,-0.12759465239342546,-0.5763390013148971,0.5234020493187224,0.5350670992632369,-0.6885977565887565,-1.8882850270684923,1.9661816008811852,-0.45371301430511557,-0.2700924610015733,-0.40016273750094394,0.1854929934672892,-0.33099351439247565,0.47944518716577544,-0.5678749688911207,-0.8949692316206076,0.11229704322691925,-0.8139484164969838,-0.5942478596536961,-0.8962865903856132,0.16354726004594916,-0.626210175283937,-0.4252335429386169,-0.5752843086895693,-0.40554616963305384,undefined,1491900282759
903d185fccf839df,-0.10957647951662068,-0.5745779563205329,0.5234020493187224,0.5350670992632369,-0.6793509152372479,-1.8912990627296573,1.9613927209174726,-0.4804524252655643,-0.27677370618746294,-0.496345761163306,0.2033295178266491,-0.3112873071347218,0.8537071078431373,-0.5808367127442223,-0.900232404211293,0.11633822005326895,-0.8071342749276276,-0.5981869508258905,-0.9014642305322274,0.17594300945141078,-0.6259395277262337,-0.4244097831658603,-0.5753265699235366,-0.41524874554061153,undefined,1491900282983
903d185fccf839df,-0.16501704595066052,-0.5757520155447681,0.4315284924587703,0.3877188662694921,-0.6797417709605107,-1.8995305942954535,1.9501765970985219,-0.5679960922021503,-0.31148411966682726,-0.7623556655863165,0.1994395416101428,-0.39609975036389633,1.1322276069518717,-0.6160183465524319,-0.9086534744666027,0.13654438683223283,-0.7997343734285861,-0.6196556305178925,-0.9096085184783184,0.21294547395307337,-0.6320832970887977,-0.42941279332260607,-0.5982158604658373,-0.41759496526579154,undefined,1491900284304
903d185fccf839df,-0.10126036522191643,-0.5763390159288933,0.4315284924587703,0.3945202169640858,-0.7284342598964009,-1.9092831189264485,1.9562120028564813,-0.5611066902980273,-0.2924887939901992,-0.619536031621608,0.2078882390747206,-0.41318209698395264,0.918985349821747,-0.6215733481804516,-0.910758749392664,0.20120383787770182,-0.8012773380717467,-0.6209665499144793,-0.908761904331655,0.2576779573956564,-0.6219240814154605,-0.4292608741249989,-0.6146683823703176,-0.4297197416465058,undefined,1491900284477
903d185fccf839df,-0.22184369469373555,-0.583383210520346,0.4474786356784817,0.4629616169055647,-0.8106272634684223,-1.913694698020475,1.9454797628748415,-0.6701275251017317,-0.3105316292065575,-0.676776176288264,0.247516359230603,-0.43761634748576217,0.6361129679144385,-0.6474967193296841,-0.911811372131227,0.3224403580512189,-0.768252634022828,-0.6370142297134371,-0.8971332049543537,0.32001086691812847,-0.6101124775937905,-0.43243397729359506,-0.6229157924037602,-0.44164215607261753,undefined,1491900285786
903d185fccf839df,-0.21214146358458635,-0.5786870759213788,0.39898981400239586,0.4142223196422211,-0.7943552909576181,-1.9237803036226908,1.9509103106935963,-0.640067149105546,-0.30622513590338757,-0.65493057439245,0.23296230203791282,-0.4401446165375422,0.5447234291443851,-0.6474967193296841,-0.9118113647689932,0.3426463835065751,-0.768252634022828,-0.6406493394174801,-0.8983156660169803,0.32743291818865555,-0.6095657407311772,-0.43270017577783904,-0.632412352041554,-0.4388609393724997,undefined,1491900285987
903d185fccf839df,-0.26896804331684193,-0.5757520155447681,0.4308901004418187,0.38976190426581214,-0.7457142290965529,-1.907470971232645,1.9661710764297216,-0.5083440801347536,-0.3116086588238432,-0.6401407698580615,0.25853284157917544,-0.32961207723894614,0.6709280303030304,-0.6678650629493479,-0.9097061119296334,0.24363661852519675,-0.7676449426883197,-0.6560067282171855,-0.8949432032050073,0.36620620399741505,-0.6092677567912788,-0.43613169330066776,-0.6300418268394522,-0.45694441725955787,undefined,1491900287273
903d185fccf839df,-0.26896804331684193,-0.5422921021958643,0.4474786356784817,0.4510064451745817,-0.7637141977975822,-1.9060920614489594,1.9621606224813357,-0.5339527437905347,-0.3265519490855394,-0.6742380081108873,0.27055371845231185,-0.3126807297143844,0.6230573195187166,-0.6761975653913774,-0.9128640022320238,0.2820281940816204,-0.7161875323817022,-0.6523462865391131,-0.8982666886711649,0.43212694941068625,-0.5970465625088495,-0.43459411158839356,-0.6295245317384042,-0.4528505142601804,undefined,1491900287473
903d185fccf839df,-0.18303528783828477,-0.6391497084118587,0.4570489249198681,0.4438591011661635,-0.8357449315032861,-1.9220496790672976,1.9272657262777595,-0.793556108812195,-0.32939362712595227,-0.7895322931717857,0.1895531854457316,-0.410488014766047,0.2749066956327986,-0.7835942980684903,-0.9739167100473826,0.2880899027917019,-0.7725184416073226,-0.7027565164726399,-0.927450386782732,0.46232329957116086,-0.6286761425851155,-0.45006367364637134,-0.6288470046705366,-0.4550824994316918,undefined,1491900288786
903d185fccf839df,-0.17194714694714902,-0.6391497084118587,0.43790885471099417,0.45520217275990577,-0.8656248820462055,-1.9225574531868912,1.9127150085243403,-0.8983464584682909,-0.3366765292087142,-0.7676514308152191,0.18997849434272132,-0.4200962477589256,0.23573975044563283,-0.7937784634029349,-0.9760219702489762,0.2941517810901126,-0.7615162641306421,-0.7107740232235848,-0.9256172223697449,0.4718241403711326,-0.6311500212121973,-0.44589442785700223,-0.6187762602055839,-0.45736400272939437,undefined,1491900289168
903d185fccf839df,-0.15947302726320722,-0.6414977099483596,0.4034560167515627,0.4012268364009042,-0.8668591663469927,-1.9170907288979657,1.888573386540026,-1.05493992047063,-0.35060004731752753,-0.7518522127246602,0.18602843509657305,-0.41674667832318973,0.379351882798574,-0.8067401554529384,-0.9865482933436457,0.26788382080690265,-0.7723731243830423,-0.72048242570939,-0.9291576087345141,0.4704228813912645,-0.6373836215897535,-0.4461577703867796,-0.6095641197733465,-0.462242754645732,undefined,1491900290559
903d185fccf839df,-0.15947302726320722,-0.6414977099483596,0.388143757274904,0.40114172359623845,-0.868700306118879,-1.917859377788214,1.8922261872173567,-1.0314289355710273,-0.3488273578393895,-0.7576338134008833,0.18688152545065387,-0.401320252853259,0.5795384915329769,-0.8067401554529384,-0.9865482933436457,0.26788382080690265,-0.7723731243830423,-0.7206787470242926,-0.9291785991610271,0.4715315695710955,-0.6373382050845052,-0.44624454566174376,-0.6091402969816914,-0.46190996849788885,undefined,1491900290695
903d185fccf839df,-0.10957644501121094,-0.6679134433198067,0.39069580052101377,0.4012268364009042,-0.8875951342332373,-1.9293751364450633,1.8793979943989518,-1.1248404891505555,-0.35428367465115795,-0.6999125742190591,0.16431632517682687,-0.2982825482040375,1.5935271836007132,-0.8159984958165628,-0.9939167555848599,0.3183991529601477,-0.7553812914883323,-0.7268786989508993,-0.9339434272946395,0.47818369894625307,-0.636497809111406,-0.46218041861959447,-0.6410806136181264,-0.48746807615452564,undefined,1491900291809
903d185fccf839df,-0.10541847412738316,-0.6508900083742865,0.4296143329557132,0.42144870994837363,-0.8528809061742616,-1.9268316071992286,1.8787773618290529,-1.112414737887519,-0.33518543705322673,-0.7370491866584065,0.15283788788723843,-0.3029337317628105,1.615286597593583,-0.8002593288540986,-0.9970746532494842,0.29819301444590535,-0.7532436469929634,-0.7155553954121091,-0.9312356614425461,0.48466644443875273,-0.6311392146752857,-0.44689390872515944,-0.617633441455339,-0.4696812831081628,undefined,1491900292042
903d185fccf839df,-0.11512042919325449,-0.5651857017365945,0.4430129412032137,0.45520217275990577,-0.7967827147945239,-1.8845978416593443,1.88114944350574,-1.0072323155671383,-0.3220148365634824,-0.5514074717444885,0.13162498613052762,-0.2958241826911798,0.7797251002673797,-0.797481789187765,-0.9823377582159909,0.3002136028590802,-0.7300732462351873,-0.7069679238520057,-0.9240499367517203,0.5255339192051519,-0.6194988659215309,-0.4450262023693919,-0.5711425128030905,-0.474945754412001,undefined,1491900293295
903d185fccf839df,-0.11096238929860723,-0.5493362967873171,0.46661921416125446,0.4767208199376737,-0.8124581173292146,-1.8748709389827536,1.8552590048369058,-1.1632386153934058,-0.328857344749981,-0.52493986080576,0.10939248294676396,-0.28037294479499064,0.5055564839572193,-0.7919268005105199,-0.9802324906521634,0.3163784232233652,-0.7098496142302023,-0.7038077850068171,-0.9261069991861658,0.5382068394170387,-0.6153831101206123,-0.4462789430296139,-0.5648571035409335,-0.4816368937439939,undefined,1491900293502
903d185fccf839df,-0.11512042919325449,-0.5211595622634944,0.5157461737173424,0.4874435494074455,-0.7549096445735491,-1.8490280293763308,1.8568500385512159,-1.1084958889245544,-0.27700364990142795,-0.31170976291843666,0.07525732366390371,-0.12011187580649871,-0.847879066399287,-0.7419317599567935,-0.9391798210120483,0.3567905871929637,-0.6915763679208933,-0.6754931929780877,-0.9204465792542216,0.5290447656284929,-0.6006165269416571,-0.4415080572732418,-0.5404850411055068,-0.4966469777355108,undefined,1491900294783
903d185fccf839df,-0.1206644823861175,-0.42782411910620904,0.5131936221973338,0.4957582630844236,-0.774411326654615,-1.8364734299730479,1.8425044465154832,-1.1903969887024461,-0.2859800140424096,-0.3191617155370092,0.07603633219150545,-0.07247866209750807,-0.8870460115864528,-0.7354509333579535,-0.9244429848764253,0.3163784232233652,-0.684164381290396,-0.6687422751287212,-0.9163954257872109,0.5452439307899412,-0.5939819929003647,-0.4355041798589762,-0.5421434609280027,-0.4990687331042429,undefined,1491900294991
903d185fccf839df,0.03595508932308198,-0.5123542496076965,0.7307556901336167,0.6690069425303847,-0.624775012108529,-1.8121142461139934,1.8527475409578409,-1.0473309478825041,-0.24222844337149455,-0.033566306339253456,0.03733420757167418,0.016981926867738556,-1.0045468471479502,-0.7326734325439437,-0.9118113647689932,0.2961723412385659,-0.7030400714657883,-0.6590148731751673,-0.9101332802666818,0.5769185338941534,-0.5823681684227776,-0.4183393310589966,-0.4961692354738341,-0.4813720219650216,undefined,1491900296318
903d185fccf839df,0.03595508932308198,-0.5082451446208468,0.7307556901336167,0.6690069425303847,-0.625978438515992,-1.8138308953754234,1.856105803647243,-1.0255885065613,-0.24149044454631696,-0.035474616761473406,0.031386576430533775,-0.004350227255469183,-1.0045468471479502,-0.7308217567007541,-0.9097061045673995,0.2880899027917019,-0.6975622155268119,-0.6615797154254143,-0.9123022915772812,0.5805063715350528,-0.5835058251538633,-0.4161880027191483,-0.49279466982363596,-0.4785592488567797,undefined,1491900296645
903d185fccf839df,0.15515244000209508,-0.520572459581396,0.8015750172816378,0.7442626845732775,-0.6081533243820223,-1.8025457318378597,1.8800738533653478,-0.8405534286135713,-0.26715270883104164,0.21664920800406418,-0.022749458206620797,-0.04948320320721524,-1.02630626114082,-0.7048984244038452,-0.9118113868556945,0.24767773882210337,-0.7072532471214462,-0.6357856350245802,-0.9068937565922149,0.5100430839747,-0.5852963297619345,-0.3964576348884821,-0.49607894138756586,-0.5018738906374806,undefined,1491900297802
903d185fccf839df,0.10525582324468907,-0.5270297414727005,0.8015750172816378,0.7442626845732775,-0.6035556181799241,-1.8067802880971588,1.8917475598444076,-0.7705900406800412,-0.25281097098795136,0.2467543010673815,-0.02670886979820899,-0.048879246518042194,-1.02630626114082,-0.7048984244038452,-0.9054955768019785,0.2436365902604752,-0.7158301022746372,-0.6350763451555391,-0.9043749046766112,0.4874689631389163,-0.5885146988267673,-0.39576975449348556,-0.5086369877211726,-0.49672616311716533,undefined,1491900298014
903d185fccf839df,0.10525582324468907,-0.5334868772240434,0.7683984550822107,0.7578254164011548,-0.6029384749732555,-1.8309368281419944,1.8912137071224826,-0.7943446180684787,-0.25933821486840253,0.36157822582647137,-0.04671742299648345,-0.007782926815131759,-0.852230949197861,-0.6641617242137432,-0.902337686499588,0.2436365902604752,-0.7280535930870362,-0.6104411934698144,-0.9079712654121697,0.47739837939971336,-0.5793866047574999,-0.38718338605875774,-0.5330232481978705,-0.49877381684694494,undefined,1491900299301
903d185fccf839df,0.17178459958068412,-0.5017880380974962,0.6739728549761488,0.7273867907574934,-0.5850722182031713,-1.8335944901724746,1.88720325526914,-0.8163482455501725,-0.2618306096363089,0.474128681372005,-0.0478934822888859,0.0034623061203933837,-0.852230949197861,-0.6623100613213282,-0.902337686499588,0.24969835549999975,-0.7225645557522333,-0.6083703208706972,-0.9062290596201014,0.4768594338225556,-0.5783641761194941,-0.37722519903832297,-0.527755483935924,-0.4941429939104628,undefined,1491900299499
903d185fccf839df,0.23415519800039297,-0.5375960114388855,0.7128916415477977,0.7019107784579885,-0.5103569167562152,-1.8228473805435939,1.8941117557770293,-0.727037980497366,-0.31246050570743183,0.5029572051680923,-0.06233374450396218,0.023500034881469577,-0.9392686051693405,-0.6595325346057692,-0.8886534510158267,0.2739456143111487,-0.7267747944590718,-0.5876362631767926,-0.9048436910053486,0.5000648895080945,-0.5643412620952735,-0.3669698710574594,-0.5313974637970376,-0.46239178724708213,undefined,1491900300834
903d185fccf839df,0.23138317140396147,-0.5375960114388855,0.7128916415477977,0.7019107784579885,-0.5071374939612731,-1.8233202161088962,1.895871093770448,-0.7166535466515406,-0.3117530786997993,0.5386247969112402,-0.06519667385718995,0.005584656853675562,-1.0001949643493762,-0.6595325346057692,-0.8886534510158267,0.26788382080690265,-0.7326311895225287,-0.5867433181570371,-0.904584808947858,0.4829418177141053,-0.5674202239597985,-0.3683727359271347,-0.5256307959656962,-0.4607451087610751,undefined,1491900301073
903d185fccf839df,0.24524337339693847,-0.5111802780674384,0.7977469524124732,0.7143036948705336,-0.4289044800180902,-1.8305688083192975,1.9223742834552036,-0.5275875406814797,-0.27997664297305036,0.588251112295734,-0.08641868547313884,-0.0716241256208948,-0.6433405748663101,-0.6252766869160563,-0.9044429467011816,0.28202805275801274,-0.728034348076953,-0.5635710773632665,-0.8997360189185647,0.4891011984100718,-0.553282847586277,-0.3557082887117596,-0.4998603572006275,-0.4602726374684113,undefined,1491900302330
903d185fccf839df,0.24524337339693847,-0.500026993103132,0.7977469524124732,0.7143036948705336,-0.406203947348371,-1.830508248129533,1.9231658548215216,-0.5173044846998713,-0.293836502229228,0.5569637644448004,-0.08584972792447583,-0.08473546850334093,-0.6389886920677362,-0.6354608652012754,-0.9065482289894767,0.28202805275801274,-0.728034348076953,-0.562469145218767,-0.9040460544491833,0.49307399736213847,-0.5531069235248817,-0.3561010994704159,-0.4987379503663213,-0.4562636742111787,undefined,1491900302506
903d185fccf839df,0.2438572565824935,-0.5786870613073827,0.8564439470729981,0.8148507194613078,-0.48047696711753124,-1.8548953825094654,1.9421951294448125,-0.4683947713552596,-0.30731534346872597,0.5952350194456393,-0.04543713254120089,0.05733037030690539,-0.5954698640819964,-0.5650974680771108,-0.8844429158881718,0.31435780654546874,-0.74749416161132,-0.5468774381452512,-0.8890518879146607,0.4702996957662667,-0.5434385408132614,-0.3654796524216773,-0.5070934787947863,-0.4662496227640188,undefined,1491900303814
903d185fccf839df,0.22306702260384748,-0.5857312412848393,0.9438515553207328,0.8368119647498349,-0.48511581734810605,-1.8630384031304044,1.922563628257064,-0.6116549041277434,-0.30050109258570407,0.5983287564237656,-0.03680101245752295,0.05733037030690539,-0.5954698640819964,-0.6049083562471671,-0.8854955459889686,0.32244021672761125,-0.7543278297426917,-0.5494992766394449,-0.8898145402573991,0.47510401074550807,-0.5443699448048478,-0.36308480359216533,-0.5050060758613037,-0.47314375917309703,undefined,1491900304007
903d185fccf839df,0.1870307458610574,-0.6503029787621689,0.9846842472584894,0.9631640618371232,-0.5628654001676051,-1.8958503961504798,1.9214827806047885,-0.6829677539987932,-0.31098148908649037,0.45290192381580724,-0.0566037465185714,-0.040975908898926196,-0.6346368092691622,-0.5400999866525712,-0.8760218603573298,0.2598014954189248,-0.7535357721508681,-0.5317353697461671,-0.8878064558844653,0.4161587629637412,-0.548384483067185,-0.3592847781031481,-0.491128699655542,-0.47412072353918255,undefined,1491900305431
