UUID,iqrAccX,iqrAccY,iqrAccZ,iqrAccXYZ,meanAccX,meanAccY,meanAccZ,meanAccXYZ, covarianceAccXY, covarianceAccXZ, covarianceAccYZ,pressureDerivative, pressureIQR, iqrGyroX, iqrGyroY, iqrGyroZ, iqrGyroMagnitude, meanGyroX, meanGyroY, meanGyroZ, meanGyroMagnitude, covarianceGyroXY, covarianceGyroXZ, covarianceGyroYZ, class, timestamp 
903d185fccf839df,-0.819215926553166,-0.6186040811796369,0.3026500543932769,0.3862186426675273,-1.5386900440957605,-1.5872168850259258,1.9028322092030028,-0.6485838311902334,-0.4389658259255643,-0.7766093642467415,0.07773763106246184,-0.706041281653897,-0.051484514260249546,-0.9076560194411941,-1.1581274635942556,-0.7767703521188366,-1.2208135100933815,-0.9599206638348519,-1.123494667945059,-0.7617131307278204,-1.0602627455620046,-0.4622648967069075,-0.6211449797744762,-0.5261671991167098,undefined,1490484529709
903d185fccf839df,-0.4602381200084839,-0.40082134150864823,-0.17203049765704106,-0.1783762649374198,-1.0775197062601014,-1.6798762226109865,1.9056013056031826,-0.6573002206545299,-0.646100830001195,-0.5926623184769287,0.07508599968817078,-1.1668847266652251,2.2245501893939394,-0.8585868524236926,-1.0812852674557756,-0.6757399845919226,-0.9790102380806223,-0.9105942286612455,-1.054774854537008,-0.6315437752510368,-0.982042443210544,-0.45910526788580114,-0.6280432918551124,-0.5397207352618224,undefined,1490484531172
903d185fccf839df,-0.5641892726490091,-0.3620783224046443,0.29371815716884214,0.3290643768518022,-1.2159684616419986,-1.8048296095265235,1.9779084683100838,-0.3617738724252438,-0.39496554086451474,-0.6187085687341396,0.005717659574309522,-0.7783939194093564,3.2124275846702317,-0.7687809431260717,-1.1002326534435212,-0.42518457645982827,-1.0005553338526916,-0.8408833622223977,-1.0552340189490026,-0.5075020784594351,-0.9215719307605186,-0.46484315212494287,-0.6521096922573744,-0.5131074008027157,undefined,1490484532712
903d185fccf839df,-0.569733343094577,-0.470089198970949,0.2579890434494064,0.2277967544431479,-1.1775900845579093,-1.8457764107414127,1.9414640388443098,-0.6627444868219096,-0.3421430844507911,-0.5581455921453897,-0.02244219323384366,-0.5120624917115787,1.114820075757576,-0.7465609366139929,-1.0581273389781416,-0.4514524519488736,-0.9913228225445723,-0.8097498821892996,-1.0398962532340301,-0.4866385289601961,-0.9001527099534766,-0.4661405030321861,-0.6280035332016919,-0.5236365605798087,undefined,1490484534185
903d185fccf839df,-0.2814422320116032,-0.5663597463468335,0.8494262093516204,0.8110555013407958,-0.9902155402017613,-1.883055884672852,1.9645326947303263,-0.5148080141910777,-0.28970537947099495,-0.3608982267673151,-0.04380210522602791,-0.25968394625010777,-0.678155637254902,-0.7150825897382899,-1.0497062908095334,-0.400937275251597,-0.971937784739387,-0.7916673791881302,-1.0154223940473637,-0.39798379949983326,-0.8700123075985409,-0.45763386688507446,-0.6034960447001936,-0.5337074203690472,undefined,1490484535679
903d185fccf839df,-0.1206645859023467,-0.6074508546713153,1.3489885477091352,1.3652729328361703,-0.9057596784080075,-1.8125917404395138,1.9261191162547826,-0.6824831298001499,-0.2368708043722098,-0.002938029575032216,-0.0006883852111686835,-0.1523200877061734,-0.20380041221033868,-0.6836042299118121,-1.0339167877619444,-0.4029578919294934,-0.9557751811160702,-0.7905536176904604,-0.9899110657949183,-0.37828439511559714,-0.8559563342514062,-0.4648099955628732,-0.6003271313448858,-0.5132001965470468,undefined,1490484537176
903d185fccf839df,-0.1691750168344883,-0.5628376855860975,1.1990563882056098,1.1567268231292573,-0.7882558739041425,-1.7896883308537819,1.8779042586989485,-0.955566018523101,-0.2697379246788648,0.00848332126870646,0.15327060973975182,-0.08859297653301462,0.13129456327985742,-0.7419317470060189,-0.950758796294216,-0.32415418066819274,-0.9751494900315342,-0.7940902293962436,-0.9610770593177411,-0.3576285261983911,-0.840806092362079,-0.4657566554395591,-0.6034427969362107,-0.5214172590175626,undefined,1490484538680
903d185fccf839df,-0.3230226999688952,-0.45365272056756545,1.1269607852975843,1.1732497167984397,-0.7856227349981736,-1.8084456936260076,1.9422582468229834,-0.557871299801239,-0.2680315119688286,-0.020113584924714753,0.20686099458298232,-0.2571077626845903,-0.8174158868092692,-0.7761876076465065,-0.9507587815697485,-0.34436024852063124,-0.9617138062566815,-0.7983776311972615,-0.942563496716504,-0.3217501474065687,-0.8326022167178398,-0.4547647735289179,-0.5822923640579141,-0.5110984545239687,undefined,1490484540202
903d185fccf839df,-0.5697332740837575,-0.4747852897279277,0.7409638631180558,0.8085407542799088,-0.919737940981364,-1.8462445870318593,1.922944954473141,-0.7433966035415046,-0.23130439414161708,-0.2229635173500348,0.17142072714108325,-0.020964995990600047,-0.6868594028520499,-0.7548934131544734,-0.959179822376123,-0.32415418066819274,-0.9546472368033051,-0.7980103198992329,-0.9293045401480202,-0.3369792110030062,-0.8275826820704807,-0.4622816820259556,-0.5761324959943231,-0.5097028944380626,undefined,1490484541683
903d185fccf839df,-0.6625962340750324,-0.5998196304677449,0.6663164711008701,0.7233061200872044,-1.0814908138766508,-1.9175169790156807,1.968832431249801,-0.5696544151425701,-0.2660287204107561,-0.35336496424142444,0.1189147652330722,-0.05974467356616756,-0.5737104500891266,-0.8197018086506184,-0.9233903400511609,-0.41912275469086063,-0.9469285556112812,-0.8161225390103571,-0.9070686756223685,-0.3743666375428008,-0.8332370235633301,-0.45714814735611314,-0.611749940088345,-0.4826276138667771,undefined,1490484543197
903d185fccf839df,-0.58497952388036,-0.6238872746187142,1.0338114609515268,0.9621365644265578,-1.0210932036834972,-1.9007278234545764,1.9413404407003232,-0.7277151423793595,-0.17794970807042962,-0.1985322881274339,0.09467420327272714,-0.1262090319926427,-0.7477857620320856,-0.8345151635930369,-0.9012850343120898,-0.25747412707718814,-0.9577337755490524,-0.8377558742912015,-0.8895836453700104,-0.35099179654759927,-0.8298847142468708,-0.4593203481755837,-0.5965607376183285,-0.4859849817453185,undefined,1490484544725
903d185fccf839df,-0.3715331999118563,-0.5452272064144635,0.9687341040387779,1.085150378381838,-0.9562007411458193,-1.8827088298646009,1.9121522253455112,-0.8870336622886723,-0.1583953633371207,-0.13892136538787006,0.0865146053259238,-0.0166078549115776,-0.6868594028520499,-0.8206276530476004,-0.9233903326889271,-0.26959778474748414,-0.9815889818306708,-0.8244186941148707,-0.9046547759310855,-0.3431847824715886,-0.8305531479082793,-0.45166965907999673,-0.6060715651919482,-0.5002826615979561,undefined,1490484546168
903d185fccf839df,-0.2966883782919765,-0.5546194463844057,1.288377901819452,1.2088981399709842,-0.852232912432185,-1.871756746780449,1.886977095313832,-1.0267461931844832,-0.11830082370598557,-0.026652148625609787,0.15490351690246296,-0.0666754305601631,-0.6476924576648841,-0.8085918183453535,-0.9454956163412968,-0.28778326418674777,-1.0209817222645428,-0.8135576965552535,-0.9172490355580409,-0.3876554938359012,-0.8373705940774373,-0.46447871454571493,-0.6100340366017288,-0.4984533486697502,undefined,1490484547681
903d185fccf839df,-0.3798492797011508,-0.4747853189559201,0.8481501877285655,0.9194734243080863,-0.9292830688533285,-1.8437988877630673,1.9169332153750718,-0.8095550106628879,-0.18099199059852442,-0.12987503387071678,0.12191686500205823,-0.015407725235106785,-0.7173225824420678,-0.7965559771677193,-0.9391798210120483,-0.3746694562919947,-1.056489035812907,-0.80471057494663,-0.9299902286721861,-0.4359450197247421,-0.8444069197499019,-0.479855510820878,-0.6241256633844801,-0.5096665316575975,undefined,1490484549191
903d185fccf839df,-0.6321039070088761,-0.6180171246375002,1.1186667718162022,1.1043317113687758,-0.9684510021955615,-1.8106048975822768,1.9519517139127225,-0.5746324846895995,-0.16543277195268025,-0.23129679423305258,0.19136259417732768,-0.004943308539556076,-0.8696384803921569,-0.8122951570809581,-0.9149692918825526,-0.29990690772468304,-1.0834533247416136,-0.8231141098544811,-0.9182495801985165,-0.39484656795355316,-0.8408371730255881,-0.47833428098339104,-0.6300843015592429,-0.5306541044813537,undefined,1490484550663
903d185fccf839df,-0.5960675267498569,-0.49356985735178915,0.970648263541835,0.9618305658083783,-0.9826041249054279,-1.8109216751216242,1.9269001862151174,-0.725771464860823,-0.2618517543519536,-0.3708302813814855,0.1688305148691317,0.040354396731649984,-0.7129706996434938,-0.7965559577415575,-0.9223376952258965,-0.3059687436260114,-1.1083744622503733,-0.8385918238089237,-0.9282690140039755,-0.40639540224020265,-0.8527513562892249,-0.4779153608998747,-0.6281010575106355,-0.5644876805438267,undefined,1490484552165
903d185fccf839df,-0.3687611733154248,-0.5751649713186543,0.944489693200735,1.043134109324778,-0.9339836346164859,-1.8653629823852593,1.8793848480004378,-1.0934901851829741,-0.26213483461586967,-0.43083276152577754,0.16232685676688408,-0.010020789666155643,-0.8739903631907309,-0.8187759901551854,-0.9465482758910287,-0.4090197419631826,-1.114132869953525,-0.8632586397313454,-0.9434800814493438,-0.44690871404025667,-0.8722131841600504,-0.48826329326925483,-0.6353516982756335,-0.6003533243408251,undefined,1490484553674
903d185fccf839df,-0.2758981788187402,-0.6180171538654926,0.6994932874372466,0.7453051612054854,-0.8491677794499546,-1.9049484034445465,1.900226061924029,-0.9850240939091253,-0.29771642253618213,-0.37306348038537773,0.0806317852380402,0.005074249401950583,-0.9479723707664884,-0.8372926773578213,-0.9507587889319823,-0.26353600537559885,-1.0706334384775078,-0.8770264599005655,-0.941646916546992,-0.37459761441296746,-0.8648503359195925,-0.483728381792253,-0.6161684359441458,-0.5946227506349622,undefined,1490484555204
903d185fccf839df,-0.23847581976691484,-0.5775130020831475,0.5591306547642593,0.5821875718521827,-0.827012384480169,-1.7914632085061597,1.8752954947105336,-1.0056553665615038,-0.18211316006421355,-0.3744209066619485,0.12970152124670328,-0.007348716716189485,-0.9131573083778967,-0.8298859739850629,-0.9612850973021843,-0.07359882906554148,-1.0442314227957292,-0.8675080448115321,-0.9431442345272634,-0.2051993146044399,-0.8278922803320488,-0.48297495296703685,-0.5990820510706729,-0.5815558844524429,undefined,1490484556711
903d185fccf839df,-0.36183103781352655,-0.6479548310857064,0.5297819032970474,0.6193015204525244,-0.9430556182801224,-1.7796120395487194,1.9343372651726987,-0.628441986170669,-0.1331000342388486,-0.4212601263513875,0.1283212372042133,0.05437386088759666,-0.865286597593583,-0.8187759772044109,-0.9602324672013874,0.09007040109366668,-0.999233834417838,-0.8738663203799036,-0.9338174857999304,-0.012980516504008456,-0.7902089740113527,-0.48151722359577764,-0.5727781311404914,-0.6236270786959672,undefined,1490484558168
903d185fccf839df,-0.3743051574974683,-0.5728169405541611,0.4500306789245915,0.5190411300118384,-0.9484658976810754,-1.7878831696839075,1.9520490077369421,-0.5182673403432878,-0.09598219730462372,-0.402182842609876,0.12896055706791515,0.06813530530527437,-0.8130640040106952,-0.7715584568908561,-0.9444429862404999,0.013287264113180111,-0.9738005618712636,-0.8459127074142188,-0.9427943934818305,-0.08418292843610968,-0.7967724763656712,-0.476574994557871,-0.5830582921152218,-0.5625156308565672,undefined,1490484559658
903d185fccf839df,-0.3687611043046053,-0.694916177075379,0.5878410142145196,0.5980922830561186,-0.9677104348335274,-1.8572944989523332,1.9570114557767768,-0.5966891663522548,-0.15878972760948057,-0.38388378362479625,0.11516062616061637,0.09968263901926597,-0.7129706996434938,-0.8215535039199697,-0.9539166792343727,-0.025104226649078947,-0.9465817165864473,-0.8597375240211687,-0.9444246501714137,-0.07060149987558051,-0.8049554371344201,-0.4714634309084504,-0.5818299950299544,-0.5375863815076543,undefined,1490484562545
903d185fccf839df,-0.3451988782349375,-0.6755446236813886,0.574442914240918,0.5426283730657427,-0.9403401956403257,-1.8526173867442182,1.966313079531628,-0.5259547592377748,-0.1559987895108624,-0.4125039310422847,0.11201291053448723,0.09968263901926597,-0.7129706996434938,-0.8280343110926479,-0.9518114190327791,-0.03924847273254981,-0.9465817165864473,-0.8611054398554854,-0.9457190601958332,-0.06307165982348724,-0.8050111543949499,-0.47187901782102676,-0.5806817353367272,-0.537370373553776,undefined,1490484562691
903d185fccf839df,-0.6930885956465984,-0.6960901778436295,0.5342486143201131,0.4512131374383809,-1.0398645949431824,-1.855277377324863,1.9112764939832252,-0.9234490552066157,-0.14275808838967852,-0.3785939123334342,0.14587456254608536,0.06928275620363736,-0.6563962232620321,-0.8437734910058867,-0.9833904324901904,-0.1342171032846608,-1.000291089528189,-0.8695725856573551,-0.9685986317625677,-0.14845603906925656,-0.8368989815357629,-0.46914214524389636,-0.5769945279237028,-0.5125335952836432,undefined,1490484564138
903d185fccf839df,-0.7138788296252444,-0.6849368928793231,0.15271738661585263,0.10609061132893027,-1.203993460903587,-1.8495637518893904,1.9260139283063242,-0.8496919174582231,-0.14715341371313412,-0.5421188828473475,0.11558824872164324,0.0849490512629964,-0.8174158868092692,-0.8724743500183546,-1.0012851662904376,-0.49994709676241844,-1.0998147251513346,-0.8791606629385931,-0.9828441377838062,-0.517556780778533,-0.9228727237398682,-0.4718481629647817,-0.6348065269209355,-0.4934651367593417,undefined,1490484565658
903d185fccf839df,-0.5974536435643018,-0.6174301096393789,0.22226043800386944,0.199025501500302,-1.147051841714525,-1.8975693728897611,2.0104832951702876,-0.30707551309781045,-0.22099098210432205,-0.3333478177238412,0.05443513266740349,-0.023077104938223403,-0.9175091911764707,-0.8817326709558171,-1.0044430713172958,-0.4514524943459559,-1.0984629975643894,-0.8746136081158659,-0.9671782781819894,-0.44007180143502045,-0.905147761350755,-0.46487591495211084,-0.6156200403569168,-0.5057252824805407,undefined,1490484567169
903d185fccf839df,-0.5461710480140898,-0.6996122970603501,0.8009368794016357,0.8027256800504665,-0.9198407986839393,-1.8497757149600427,1.988327185800005,-0.34128952478473046,-0.30371971654434976,-0.39226886321270626,0.0161558217749083,-0.10427421475320445,-0.9131573083778967,-0.8465509982952839,-0.988653568269707,-0.33223661911505675,-1.0460592712018504,-0.8296243768628533,-0.9371269753320854,-0.22741926652353764,-0.833686969534234,-0.4548296265415213,-0.5366024913960968,-0.44831302459490796,undefined,1490484568665
903d185fccf839df,-0.4838004495943809,-0.7078305070340496,1.2284046313989228,1.1381166327700942,-0.7859415957934568,-1.8331193261734353,2.0183122279379755,-0.08009333126513861,-0.3250723411793222,-0.3095722444730796,0.042341146056259264,-0.07254914174011792,-0.44315396613190733,-0.8465509982952839,-0.9802324980143973,-0.2554535245316525,-0.9949763313980631,-0.8104102256847426,-0.9173399939036917,-0.2025353798131727,-0.8116635275275699,-0.455031188971019,-0.5392035914403777,-0.46651200365889856,undefined,1490484570607
903d185fccf839df,-0.3756912743119133,-0.6773056686757527,1.6373699427934392,1.5944429598296688,-0.8230215314545726,-1.7867255399277455,1.9124861962438497,-0.7263382108333228,-0.3608536121779005,-0.4498480356925558,0.13777906191611106,-0.1300287734913181,-0.49537655971479505,-0.8243309853078178,-0.919179804923506,-0.23928864763792448,-0.9774787323177359,-0.7934822671077306,-0.8685862147362753,-0.08931061098512022,-0.7641854527817472,-0.4462258353120753,-0.5479095505951257,-0.4795847162242631,undefined,1490484571665
903d185fccf839df,-0.43528991514601006,-0.5581415071451418,1.7260538268011782,1.6600482427201695,-0.8305712335169222,-1.7845034466897274,1.9470628888471297,-0.4977959532531189,-0.36958832644911294,-0.5162690709586713,0.167442227600394,-0.05099468532523544,-0.7260263480392157,-0.8002592835263876,-0.8549691847190555,-0.1988765119330475,-0.9612033534968154,-0.7779855541506191,-0.8429918802863565,-0.011533064678328769,-0.7324986933920881,-0.44530816338906626,-0.5476188340076202,-0.5003406670684168,undefined,1490484573212
903d185fccf839df,-0.43667585943340637,-0.6174301096393789,1.1378068420250762,1.1834248586762612,-0.9011105420422799,-1.8577766537251423,1.8892650180420731,-0.9956474152556843,-0.28398547065707125,-0.40771738406049096,0.165346138847765,0.030490259690473122,-0.7173225824420678,-0.7687809560768463,-0.8865481540030641,-0.16856737482348785,-0.9461386663188367,-0.7747050888052835,-0.8575522438247118,-0.013119104047728515,-0.7325594507595496,-0.44119809510890723,-0.5585946425082003,-0.5144854614682737,undefined,1490484574658
903d185fccf839df,-0.5323108805265225,-0.7589008264846064,0.6580227117564375,0.6546124644362381,-0.9739332765344967,-1.9487241262187291,1.9254774620175235,-0.887978512146681,-0.23049253173372,-0.23788197056256966,0.09070620846204357,0.015821214905040668,-0.9479723707664884,-0.7382284212211889,-0.8739166075179698,-0.1806910183614231,-0.9184060855489267,-0.8219805136006277,-0.8824468979332443,-0.18379547653801098,-0.7895055940940674,-0.4207027985001792,-0.6221580702054647,-0.478168496258196,undefined,1490484576153
903d185fccf839df,-0.5323108460211128,-0.782968499863568,0.4104742627468393,0.3864717236204009,-1.0500474355954184,-2.023082758872822,1.9606747809055711,-0.7475742752692212,-0.25478501597049635,-0.3555437156062042,0.08844946983004101,-0.027363685111945736,-0.9914911987522282,-0.7604484471594295,-0.9254955855282869,-0.2615154028300632,-0.9694347766547657,-0.839909077123641,-0.9238610217814472,-0.3112022136355556,-0.8401866057956436,-0.43215193272331187,-0.6146149402023149,-0.48790908113473025,undefined,1490484577674
903d185fccf839df,-0.39370944718871803,-0.8046880401800631,0.17249584884167812,0.10932495484520588,-1.0963947832619272,-1.9867140179381058,1.963951520211361,-0.7006241554957677,-0.2683142752630176,-0.30136108084409485,0.06542969286364897,-0.04388198575866892,-0.8826941287878788,-0.7613742915564116,-1.0265483623318992,-0.35042211268668116,-1.0164798237475785,-0.8353873555096198,-0.971138474080216,-0.42116251224439233,-0.8751286958973828,-0.45567971336576185,-0.6184964350153939,-0.5091319430961062,undefined,1490484579165
903d185fccf839df,-0.38816539399585503,-0.8299297435552675,0.30137428690717144,0.24894783543551247,-1.0799582430994195,-1.968075445257435,1.9755542193780973,-0.6028997946344632,-0.28836328443568443,-0.36794539462503373,0.07873492671028029,0.04713700855977565,-0.9523242535650625,-0.7530417761636075,-1.0402325757289592,-0.42720520727008543,-1.0032533110912365,-0.8467866537136755,-0.9884765712429934,-0.4359450188093049,-0.8912555293702534,-0.46269769289859547,-0.6155148254107382,-0.5058750584161559,undefined,1490484580674
903d185fccf839df,-0.23986176405431114,-0.8334518043160035,0.19355007855360912,0.12341763505249953,-0.9383344804267066,-1.945325765412967,2.0147514876659818,-0.3089458201028761,-0.28368460931412676,-0.3681696713647103,0.10167038149435287,0.08775999906406692,-0.5084322081105169,-0.7798909593328857,-1.034969425224975,-0.38477245488731204,-1.0073671856454463,-0.8511563851998859,-0.9935072782939095,-0.3856690955580135,-0.8867417944244954,-0.46626682954525644,-0.612180325789382,-0.4943874297212303,undefined,1490484582169
903d185fccf839df,-0.33411084086003096,-0.878652017627335,0.2401247407266379,0.2540518222853207,-0.9197790865302369,-1.9593081887861474,2.0069830346165882,-0.37932331989103446,-0.25040536810322217,-0.47477335919796404,0.11812613258247079,0.06287724810387502,-0.5780623328877006,-0.8002593029525494,-1.0328641576611477,-0.41508152133506787,-1.0270979468861379,-0.8471223001770473,-0.9868533108688047,-0.3604156451607267,-0.8813696339528936,-0.46357234421015,-0.5994722952422751,-0.49833563622813953,undefined,1490484585211
903d185fccf839df,-0.30223243148483947,-0.770054126062909,0.18844599206138954,0.23363043921170398,-0.8593506139945999,-1.9297594599841343,1.9585314989391132,-0.6466580098453623,-0.26764160346778604,-0.3057001583252679,0.0793389287463893,0.06336135982790835,-0.7434338792335116,-0.768780949601459,-0.9918114732965649,-0.3766900447051696,-1.019801588679191,-0.8124114350895186,-0.9579494844337892,-0.29708183939017024,-0.8422657993100692,-0.46605053320514506,-0.5956480397538597,-0.49752775813545214,undefined,1490484586698
903d185fccf839df,-0.21768562029367858,-0.7688800960666662,0.32498055986521224,0.28423878860910984,-0.7910227284860318,-1.8961764892536426,1.9158208121762759,-0.8707115408509034,-0.2616844846365996,-0.41851692655707795,0.04465594218376193,-0.011558617147674765,-0.9262129567736186,-0.7706325995430995,-0.9476008691806567,-0.2817214282854194,-0.9886197048113138,-0.802544708690652,-0.941451003762644,-0.18057720090124477,-0.8094175785550914,-0.4577041798330339,-0.6007514330297165,-0.4960021237274599,undefined,1490484588196
903d185fccf839df,-0.2232296044757221,-0.6966771636137585,0.49596745735456754,0.42100041002689487,-0.8793974395731093,-1.8788259864634256,1.9002549871433245,-0.9666419774839305,-0.2992386191223136,-0.22916479469960366,0.01180408492995468,0.0038189399495603756,-0.9262129567736186,-0.7752617891510735,-0.9518114116705453,-0.2211031964633824,-1.0066499937676263,-0.7907147695801572,-0.9041230172156212,-0.15864981535308448,-0.7875653934729873,-0.46003081440843413,-0.5894797459324753,-0.47789307892867194,undefined,1490484589670
903d185fccf839df,-0.2648101069384239,-0.726614986973934,0.6682308847408766,0.7047771929962553,-0.9448350431835992,-1.8967704464814445,1.8954266564613307,-1.0353966953405147,-0.2851466726353672,-0.21177987636485826,0.0327917511158649,0.021564796397338045,-0.9697317847593583,-0.7734101262586585,-0.9033903018759173,-0.2736389757061946,-1.0277118109252892,-0.7980356524158556,-0.8935648297678759,-0.1339353109233622,-0.783014181021034,-0.4485784493803233,-0.5914132639054211,-0.4884638302370168,undefined,1490484591577
903d185fccf839df,-0.30777658819393167,-0.6831758771129512,0.6242077575400586,0.6758876463694541,-1.0413560219179958,-1.8559202491121705,1.897404274951123,-0.9906946816933168,-0.2798670658304726,-0.04959611548701287,0.06112515175565737,0.0028514962669310686,-0.9218610739750446,-0.7465609366139929,-0.8812850108613138,-0.13017584166414647,-1.0270929201372234,-0.7623938448402904,-0.8839162276117575,-0.10323081241318022,-0.7545322228105273,-0.461352842874207,-0.5941245047988327,-0.5036526662989709,undefined,1490484592664
903d185fccf839df,-0.4242017397494646,-0.6649783244872113,0.7403259793750031,0.7218160068177415,-1.0255366181283767,-1.8310835710182005,1.9221402314707001,-0.7963930354797929,-0.23787264094202637,0.04411566785789226,0.09989757072924908,0.017600438716191748,-0.7869527072192514,-0.7910009755396996,-0.8633902476121313,-0.053392747080742216,-1.009858947366134,-0.772254238456043,-0.8853855580977227,-0.05093769268726445,-0.7499335377666946,-0.4727535007428353,-0.5638804445111498,-0.5008713522888901,undefined,1490484594173
903d185fccf839df,-0.4255877185422706,-0.6949161186193944,0.5820990439792473,0.4620154289678701,-1.0788268157110017,-1.8700820242743423,1.9515546193510813,-0.6504912057506049,-0.22110690868012098,-0.10293849189193081,0.09173171351462563,0.07300803932366591,-0.847879066399287,-0.8002593094279367,-0.8918113413182172,-0.0938048827856192,-1.0043002196706854,-0.8069017729385611,-0.9056133386419325,-0.09736400615207456,-0.779343455164685,-0.47746240709867077,-0.5777601710761592,-0.5271169817321736,undefined,1490484595660
903d185fccf839df,-0.5170646997407394,-0.6896330128642942,0.5208500060726126,0.5314845975767185,-1.015281782294095,-1.9218866344086873,1.9415929081179637,-0.7590479976964726,-0.23297157176565356,-0.3310286873641144,0.054637865475457244,-0.007099103282083074,-0.9088054255793226,-0.7641517535180977,-0.9739167174096164,-0.11199034809252208,-1.0062467541582039,-0.7894228483834227,-0.9461808484352281,-0.07931702955641852,-0.7808867780498652,-0.4887779298850081,-0.5684989433605997,-0.5276270470454272,undefined,1490484597171
903d185fccf839df,-0.3992534313707616,-0.7031343578210861,0.576357073743975,0.6067579376135833,-0.9567047393064453,-1.9416642042419294,1.9782892212654202,-0.5235711620330223,-0.23781184731434427,-0.34259535079932596,0.026229904100993188,0.06983553433387292,-0.7129706996434938,-0.7687809431260717,-1.0065483241566555,-0.12411399163045732,-1.0310037440618933,-0.7473467708178337,-0.9602724253084076,-0.09513123239702627,-0.768746405736436,-0.49188703591202,-0.5838763726820051,-0.5216990649493256,undefined,1490484598662
903d185fccf839df,-0.4893443992710147,-0.7952958148241172,0.21907051101470693,0.26026483967772895,-0.8960294104739978,-1.974788313890165,1.9849820716041602,-0.5094431439810859,-0.2055218920471477,-0.4685473292765183,-0.012296089366085765,0.006074799517485319,-0.7651932932263815,-0.7521159382420126,-1.012864119485904,-0.14229951346680328,-1.0393367382088161,-0.7828175884102727,-0.975217613230883,-0.1427432231994922,-0.8000123948377558,-0.492974763776102,-0.5567523406416126,-0.5200420450270942,undefined,1490484600176
903d185fccf839df,-0.6695264040823403,-0.8422570292878243,0.12719695415475482,0.09999166165741986,-0.9933938142830062,-2.022279171469055,1.9799565103762413,-0.6152372809881724,-0.27648727588724986,-0.49789513643025035,0.02362867269816542,-0.12609549456967395,-0.40398702094474154,-0.756745088997663,-1.0107588592843104,-0.09582555599295865,-1.0303954103894148,-0.7902841289782346,-0.9682277985900787,-0.22007421392868826,-0.8156645333507544,-0.4794033082784469,-0.5687266202184351,-0.5196220211096987,undefined,1490484601710
903d185fccf839df,-0.7027907577449282,-0.8475402081129053,0.03021931080258316,0.018650043939364452,-0.9457093190556873,-2.0348244535258644,1.9626471188380004,-0.7275102281639827,-0.29028575642425547,-0.5903345595801804,0.05241930146431863,-0.22764729135263154,0.2226841020499109,-0.7511900808942561,-1.009706251270215,-0.10996975967934722,-1.0248165290885736,-0.7952111596298621,-0.9694032632394377,-0.15717156118427658,-0.8071461661687143,-0.48926510739833173,-0.5209879355168819,-0.5357561855704824,undefined,1490484603197
903d185fccf839df,-0.5184507130389552,-0.8481272231110267,0.4232344789773882,0.37895536806106894,-0.9053791028343383,-2.03019392609667,1.9690375569674867,-0.6582092934909679,-0.32181812534898513,-0.5904909219426435,0.07935921535419008,-0.3441028466775355,0.47944518716577544,-0.7595225898116729,-0.9897061836460361,0.06380251147226056,-1.0047163820618472,-0.8026017049678185,-0.9770787652421664,0.11399506299020601,-0.754239478271876,-0.48349545175238634,-0.4943585943624637,-0.5217106209494524,undefined,1490484604661
903d185fccf839df,-0.6556662711001828,-0.8528233430959978,0.40537017625461974,0.3558283236999304,-0.9518087396300803,-2.031051086096224,1.954920765689505,-0.7592164748405787,-0.32010221550024043,-0.5961808811044056,0.06398668768561923,-0.3071255843813914,0.6883355614973262,-0.7817426351760753,-0.9612850973021843,0.041575826941925687,-0.9784744974988365,-0.8196689882503665,-0.9714113486461549,0.11799865781002963,-0.7610939529832913,-0.47659376451359614,-0.5073294605281482,-0.5197655711201021,undefined,1490484606173
903d185fccf839df,-0.5018185879657759,-0.8639766280603042,0.659936617122545,0.6370197483725477,-1.0802153863956077,-2.0428323788221414,2.0042638272628746,-0.46452070844179677,-0.3281538465489718,-0.5239569722221585,0.12277279565682805,-0.37127664894330203,0.3184255236185384,-0.838218489377867,-0.9886535535452393,0.011266732229448333,-0.9511021583192191,-0.8562037406242208,-0.9807311015963946,0.08305958635786258,-0.7875997311811757,-0.47857472631339254,-0.46363323548458885,-0.5312778300068173,undefined,1490484607670
903d185fccf839df,-0.6792284971698507,-0.8792390472394526,0.7562763767316639,0.720891769556238,-1.120597036077445,-2.0611495163104427,1.9897104823247966,-0.596470184264348,-0.29791692193326225,-0.4321590381707809,0.15307764400919877,-0.2995098645029578,0.7362062722816399,-0.8641418346255505,-0.9791798900003018,-0.06955763810683101,-0.9573021532378013,-0.8503900980183215,-0.9777644543291019,0.08025706819619137,-0.7857926997084237,-0.4791945419018028,-0.47651824113578617,-0.5437081361432332,undefined,1490484609167
903d185fccf839df,-0.6293319494232641,-0.8751299422526029,0.8002992497955324,0.7875852021735877,-1.1783820835299494,-2.06359055878787,1.9266188019583548,-1.0250344836580143,-0.26825398370519277,-0.43004360765381416,0.18468306882098995,-0.2849110890684234,0.7144468582887701,-0.8724743500183546,-0.9928641107595956,-0.04733093944413536,-0.9887829564491147,-0.8440888189098267,-0.9889943365263333,0.026424103050596705,-0.7979991302257975,-0.47526747913200934,-0.49311624771171036,-0.5234128562670319,undefined,1490484610668
903d185fccf839df,-0.43944788602983786,-0.8663246880527897,1.0019106662382051,0.99602801584345,-1.1074416272326362,-2.036312837973651,1.9534743664518468,-0.8105394375335597,-0.2390028516349382,-0.46216222431127824,0.22724369240854483,-0.3546059419986563,-0.12546652183600712,-0.8530318507956729,-1.000232528827407,-0.25747415534190965,-1.0368194144393759,-0.8331708244141796,-0.990526638456998,-0.2062618074613944,-0.8439181369035769,-0.4716766582876783,-0.561461036707386,-0.5195027054417588,undefined,1490484612158
903d185fccf839df,-0.4075695456654658,-0.8522363427118725,0.8168872767582965,0.8908351572167298,-0.929992781596891,-1.9981133157412583,1.9478281684639418,-0.7759221006603348,-0.29968557312853816,-0.6398511963041539,0.20280537545956734,-0.2757267771217631,0.2705548128342246,-0.8363668005839029,-0.9970746090760815,-0.012980611375865236,-0.9087476323194574,-0.8307136421898381,-1.0062344788812554,0.0953013478759725,-0.7764022565229431,-0.47155965920089526,-0.5361701208772316,-0.5604272569712879,undefined,1490484613669
903d185fccf839df,-0.48657240717999295,-0.7794464098748397,0.8162491388782944,0.8177616012936517,-0.9874898297443738,-1.9970302199566214,1.9110687285106185,-1.027121735936209,-0.28761084433411066,-0.6176014458762614,0.12036933410539076,-0.2127119314373502,-0.1298184046345811,-0.8224792965138537,-0.9854956779673165,0.1446267970143753,-0.8452770927770651,-0.8368819296527445,-0.9828441396433928,0.2587712452587801,-0.7371163125655682,-0.47640875966851143,-0.5431227820483449,-0.5421425452920858,undefined,1490484615176
903d185fccf839df,-0.354901074838677,-0.7677060806844196,0.682905006337533,0.6846642797351962,-0.9771527042147113,-1.9890875138730824,1.917290849790736,-0.9725560124899459,-0.29310683677731103,-0.7424011225558405,0.09143015118033396,-0.23036564854973643,-0.20815229500891266,-0.7928526384321147,-1.0128641415726054,0.23151294672253997,-0.8348286157409974,-0.8369959229822108,-0.9841245555995133,0.2959430926065028,-0.7289461611298883,-0.47898425414778606,-0.5396548527728553,-0.545581476938724,undefined,1490484616715
903d185fccf839df,-0.37291924771548174,-0.7794463952608435,0.747981854976383,0.8161643623292657,-1.0015195192645219,-2.0212915744393465,1.9613506231116187,-0.7139317351430756,-0.2568194506023813,-0.6889228912539553,0.11138477270182562,-0.2511625787670583,0.09647950089126561,-0.7771134714696504,-1.0339167877619444,0.2012038096129803,-0.8468404833731855,-0.8446397862721196,-0.9754974881433599,0.2978678972506908,-0.726953220849249,-0.4850230416856647,-0.5409688047429076,-0.5543261436949324,undefined,1490484618165
903d185fccf839df,-0.4214297821638526,-0.7947087852119996,0.823267384873571,0.9313690782246121,-0.9301573509270319,-2.0158434836981187,1.9683643209956627,-0.6489344462409121,-0.2537183264899145,-0.6062157438701297,0.17114574547349393,-0.3215251445067584,0.10518326648841357,-0.7891492867457355,-1.026548369694133,0.2012038096129803,-0.8631363094342586,-0.8534995746539643,-0.9646104488165801,0.35370265906577014,-0.7149940217790912,-0.4826188755413974,-0.5268268847754727,-0.5926216914431696,undefined,1490484619683
903d185fccf839df,-0.34658489153315325,-0.826407638952543,0.8768602930418764,0.9878347462020933,-0.820542675613558,-2.033492129579369,1.9145795260860432,-0.9989629570426695,-0.21947770471226574,-0.3367220369368402,0.1617633157199313,-0.17964587952384356,0.28361046122994654,-0.8224793159400154,-0.9697061749197277,-0.05743393803945269,-0.89876427672013,-0.8880901131416857,-0.925204409445301,0.1258210658889245,-0.7690614406796777,-0.4708786208611759,-0.5929228793377715,-0.5357636212894314,undefined,1490484621160
903d185fccf839df,-0.2551079103346844,-0.7107655966386527,0.927901157964072,0.9308565333367945,-0.6997063095983569,-1.9938158687577745,1.987262101255684,-0.45572532004250926,-0.19908415587015077,-0.11840328258576874,0.1328691237940293,-0.1768511117479778,-0.4823209113190731,-0.811369332110138,-0.9212850651250997,-0.22514442981917515,-0.9483985957629343,-0.8765768208662506,-0.8929840953153833,-0.14285100877702886,-0.8120668381165453,-0.4521428225846082,-0.6254503581075129,-0.5190544595462371,undefined,1490484622669
903d185fccf839df,-0.37153316540644654,-0.6849369221073155,1.0293450040654104,1.0813474519669912,-0.7706879041226361,-1.977040687581862,2.017996644189685,-0.2639974214451054,-0.24088440369409664,-0.09831712290544642,0.09055026833137038,-0.04890506640929196,-0.8783422459893049,-0.8326634877498473,-0.9633903795904792,-0.2089795670578079,-0.9560702998104628,-0.8765894865266022,-0.8731341423872363,-0.11942997305129242,-0.8084341336974068,-0.435495732580887,-0.5901538202094653,-0.4805598044783703,undefined,1490484624182
903d185fccf839df,-0.27312622123312813,-0.65499909874714,1.0459335393020734,1.1234585995051671,-0.8801688674011376,-1.9566179179602154,1.997939121125957,-0.3972526079369104,-0.21787960874459067,-0.07424138718732627,0.12335086615779337,-0.01984576283740646,-0.8739903631907309,-0.8456251474229145,-0.9254956002527546,-0.19887652606540826,-0.9591747477161283,-0.8707251807311671,-0.8439644370410341,-0.15526215528170573,-0.8035153594162293,-0.4163431808646245,-0.6004647824618747,-0.44195225274816713,undefined,1490484625660
903d185fccf839df,-0.5004325746675602,-0.6144950054207796,0.5048996087159517,0.48894296418187616,-0.9747458516878608,-1.919280212398237,1.9355390879743892,-0.790301900244391,-0.25187358079257177,-0.2476879612731967,0.1299868589778399,-0.004307475103673901,-0.9001016599821747,-0.8446993224520942,-0.9097061119296334,-0.05137215866756737,-0.935416586306248,-0.8577489776246813,-0.829222155899935,-0.14266622930293438,-0.7911306304381851,-0.4235416043862204,-0.5931920714672395,-0.4256571101731148,undefined,1490484627174
903d185fccf839df,-0.3216367211760892,-0.5505103413975561,0.4251481302065464,0.4061667975524429,-0.8814237241842852,-1.9167739518859412,1.9339401685160142,-0.7659262812741822,-0.18978244995091403,-0.21330210308163322,0.0932016330259717,0.03570906586567697,-0.9305648395721926,-0.8048884731343616,-0.8665481600012233,-0.035207295906200115,-0.887716225774952,-0.8228861225754418,-0.8277388321653572,-0.16192968465047497,-0.7757046142459367,-0.4319763019588439,-0.5811342217279402,-0.4288336080846436,undefined,1490484628679
903d185fccf839df,-0.5184507820497747,-0.5581415363731341,0.6420720602628271,0.672838655052559,-0.9231013664676085,-1.917864036147957,1.8948454704196258,-1.0400290954817308,-0.1880201121824695,-0.1852533944391589,0.1177844164989973,-0.00983892831816894,-0.7651932932263815,-0.8141468199733732,-0.8602323720342085,-0.13623771996255718,-0.891631502623003,-0.8243680321766214,-0.8122548910960775,-0.1744948163365795,-0.7739412763226293,-0.4353974704382607,-0.5853965476275954,-0.401782324204132,undefined,1490484630211
903d185fccf839df,-0.32302266546348546,-0.6356275599671457,0.8940869661585416,0.9856097587896476,-0.8216946804196215,-1.9593524459549332,1.9542527872295643,-0.6692944722971179,-0.1958212909046911,-0.12330195090512909,0.11310875872590843,0.039584108861315144,-0.7521376448306596,-0.809517649791561,-0.8802323881227507,-0.10794914300145084,-0.8895549734829108,-0.8275535035882629,-0.8336721295933124,-0.14146515028887788,-0.7741927318656745,-0.4550465259230889,-0.5863984045596399,-0.4300372358154882,undefined,1490484631695
903d185fccf839df,-0.1788771444274083,-0.680240772894352,0.837941760607177,0.8825994412796473,-0.776046754236188,-1.926875863172025,1.9921088557509892,-0.36699411807284454,-0.30334231542690354,-0.17495746757399222,0.1870297047540901,-0.003854641466029942,-0.7521376448306596,-0.7817426027991389,-0.8339165385297164,-0.16654677227795223,-0.9011717991015985,-0.7977950010101214,-0.8319579113139014,-0.13718438194324245,-0.7615169995656571,-0.4528529871553194,-0.5985638780821122,-0.43611268891226657,undefined,1490484633169
903d185fccf839df,-0.34242688614391575,-0.6538250395229049,0.8092314011569166,0.812861071651267,-0.7798524604879908,-1.8952121849463686,2.00995998051761,-0.22352985554196306,-0.35208941150017675,-0.27059130620537925,0.15980582441788194,-0.029510442514714522,-0.8217677696078431,-0.7863717665055638,-0.8286534027501999,-0.26151533216825934,-0.9130233853768281,-0.809637606041191,-0.8291032135772881,-0.1676117067526026,-0.7744226702947921,-0.44598718199205867,-0.5841851555838872,-0.3924494804307183,undefined,1490484634666
903d185fccf839df,-0.32718080887436196,-0.6720225336926603,1.1786400422367316,1.2519592357892735,-0.9129185204159661,-1.9095300181095791,1.9915092574187125,-0.3843164198327547,-0.3448576997751613,-0.10254477744168868,0.16381903687153213,-0.01652797783235055,-0.6650999888591801,-0.7937784569275477,-0.8202323251326564,-0.14027888265654612,-0.930537055952113,-0.7997392155108239,-0.8063146006498235,-0.19748469094532323,-0.7702245306789396,-0.43663978063655334,-0.564548172163048,-0.3694892520562888,undefined,1490484636168
903d185fccf839df,-0.2786701709097619,-0.588079315891321,0.8877066039063176,0.99590749593479,-0.9196350860315056,-1.9736819238622836,1.894806024938954,-1.0887099360466759,-0.25340954185587766,-0.2210134215103046,0.16879307384009654,-0.0636466278995887,-0.7651932932263815,-0.7984076206339725,-0.8149691599042047,-0.15038186711950266,-0.9637476286771234,-0.7900814754338846,-0.8268222529501066,-0.11918359647022231,-0.7590704498441292,-0.43804091273121687,-0.5673350780018364,-0.4185967004595288,undefined,1490484638103
903d185fccf839df,-0.31747868128144197,-0.6579341591237508,0.9042948850060313,0.9572214619776666,-0.7774250373932786,-1.9960496088764046,1.891050658260215,-1.0892431680508095,-0.24011842916585682,-0.23558107232414954,0.13959391923909142,-0.029625700408572975,-0.8609347147950089,-0.8197018216013929,-0.8139165224411742,-0.08572245847111595,-0.9516602404397793,-0.7740464613561816,-0.8132064587088249,-0.06259431020900866,-0.7378830390459055,-0.42730494235030403,-0.5603473166009342,-0.4313435233244039,undefined,1490484639140
903d185fccf839df,-0.36044512803154,-0.6450198437790764,0.5482845980367674,0.5354193860830551,-0.6301338552902753,-1.9864321813459345,1.9192474497557332,-0.8638262799655005,-0.1923347793746822,-0.4153570768330104,0.07360378042039983,0.030587430719300774,-0.9001016599821747,-0.8067401166006148,-0.8570744743695843,0.09209096124211999,-0.9451514472172771,-0.7876622905615543,-0.8364638575857691,-0.07400455910590784,-0.7491522907437398,-0.4497937054633637,-0.5695994596568722,-0.4734964869208492,undefined,1490484640661
903d185fccf839df,-0.2343177798722676,-0.5933624508744135,0.6178279035617337,0.5718342211728926,-0.6439783996310452,-1.9362347454555586,1.9095119141907506,-0.9010573463847286,-0.2429341714723149,-0.35444314287207207,0.09824553427950625,0.05180898138027721,-0.8565828319964349,-0.7345251083871334,-0.9202324350243029,0.07592614087783504,-0.9870953371709602,-0.7775169139211158,-0.8951041294330936,-0.018600950182350227,-0.7511574387748745,-0.4786004129504652,-0.6115519445631336,-0.5288597221259204,undefined,1490484642146
903d185fccf839df,-0.28144216300078373,-0.6978512374519898,0.6707829279869864,0.7443499641973557,-0.7497976518430912,-1.955159813345462,1.933621973295892,-0.7924507690813785,-0.24601403445824152,-0.2406920973867375,0.14345889059058117,-0.0011267326509099573,-0.9044535427807487,-0.7669292672828821,-0.9254956149772221,0.0739055524646602,-0.9839021865349145,-0.7979786554410692,-0.9149750721332279,-0.10309221921529048,-0.7741473134022173,-0.4953306277035631,-0.6202161532757735,-0.571362494784473,undefined,1490484643638
903d185fccf839df,-0.34935691812958475,-0.7365942711699899,0.7569140063377673,0.8430468379680742,-0.8493837750867205,-2.018673509689852,1.9923613116458903,-0.48043396602032823,-0.28798087985049836,-0.018348095196570713,0.09675034070323436,0.0427309197355217,-0.8696384803921569,-0.768780949601459,-0.8002322869574128,0.03955522439639007,-1.0130456562548102,-0.8194283364404557,-0.8377022931843457,-0.06798376589981196,-0.7434117129225257,-0.4749356054779427,-0.605804416483793,-0.5926698281709638,undefined,1490484645139
903d185fccf839df,-0.2966883437865667,-0.6626303229507104,1.0567795960295654,1.0694406083007924,-0.850618062372285,-1.9997810503272087,2.007995510521375,-0.3506078808916179,-0.30500816285316756,0.015434382763166941,0.14727614784744333,0.0014033934068649024,-0.7608414104278075,-0.7697067939984411,-0.7307585088867443,-0.11401099303513999,-1.0269839789670492,-0.8218221895823696,-0.8078469010756912,-0.20538409695946852,-0.7521289576692485,-0.47585344345296693,-0.6506751019747723,-0.5800920887105836,undefined,1490484646668
903d185fccf839df,-0.2606520325383669,-0.5869052858950783,1.0663498852709516,1.0358192877785684,-0.804301565813333,-1.94429857248944,1.9672335138864692,-0.5691578795408323,-0.33571180057725475,-0.13448911300239427,0.13036416556560232,-0.0012931823487541975,-0.7477857620320856,-0.692862557324662,-0.7276006333088214,-0.14836134936813167,-1.0088996576826115,-0.8228481264636439,-0.8030890699303502,-0.19254179515351666,-0.74794809098119,-0.4527128638281206,-0.6423310393623882,-0.5384433515324445,undefined,1490484648137
903d185fccf839df,-0.5239947662318183,-0.5417050579697505,0.9955303039859812,1.0303231045279553,-0.8761162982668087,-1.8294135067694528,1.9352340255349976,-0.6547397612324547,-0.26866826536063515,-0.29111313757915125,0.12000593773455388,-0.0987934228175426,-0.6476924576648841,-0.7234150792295448,-0.7697059330497334,-0.2251444580838967,-0.9802457557741625,-0.8254256332060059,-0.8392905702504324,-0.23778242539764152,-0.7734043004145714,-0.4492559244167803,-0.6000855490241596,-0.5432088069005506,undefined,1490484649656
903d185fccf839df,-0.4505359924155639,-0.5710559247877893,0.8845164227802057,0.8630435907711795,-0.7865895902677241,-1.7368099429372565,1.8947402767097974,-0.7541584381324874,-0.2690764131580671,-0.6056317117906946,0.10087290033096656,-0.06992041550508314,-0.7216744652406417,-0.7317475751961872,-0.8328639231533872,-0.22110321059574314,-0.967035308003827,-0.8250709880389453,-0.8536900064351621,-0.20689314454589322,-0.7790250184673053,-0.45357400528852054,-0.5888245780308896,-0.5015458059682718,undefined,1490484651158
903d185fccf839df,-0.19966734390064458,-0.46950215474483525,1.056141966423462,1.0765652748595964,-0.6312447097422142,-1.5927255325066694,1.870401427322123,-0.5883140090243563,-0.11854856184841332,-0.7010079623574718,0.10304960307284229,0.0031571969463865396,-0.7869527072192514,-0.7835942786423286,-0.8465481365504471,-0.35244272936457754,-0.9486641564450458,-0.8201756228586913,-0.8546765575823428,-0.23479512531173544,-0.7926410169202341,-0.45134889310675447,-0.5964727510518631,-0.5076065863498977,undefined,1490484652671
903d185fccf839df,0.11772987391781137,-0.42723701642411066,0.9961686960029328,1.021501791752608,-0.3396863456548694,-1.5248468434726326,1.7820662430814693,-0.9557499078084514,-0.21435098896265517,-0.7304314292329981,0.2726906599546631,-0.0016383129107117743,-0.6825075200534759,-0.767855105204477,-0.8928640008679491,-0.3645663729025128,-0.982287029964192,-0.7941915549614255,-0.8705033437853866,-0.23912208704167498,-0.7894593933366799,-0.46323593194330376,-0.6070617298495806,-0.5094270203747333,undefined,1490484654160
903d185fccf839df,0.11634399864123456,-0.48300349970162715,0.7307556901336167,0.8235245101104895,-0.4822461107611252,-1.5312475914896642,1.8088192609527056,-0.8520853392291938,-0.1814682575582093,-0.5201560298422376,0.19263827467192549,0.034404928131293616,-0.8000083556149733,-0.7604484277332677,-0.9381271688245502,-0.3888136599783833,-0.9329717307378933,-0.7904867826499278,-0.8753941127714167,-0.21898092193263533,-0.792651223368631,-0.4728974587172581,-0.5885250942203923,-0.47944958277503347,undefined,1490484655717
903d185fccf839df,-0.26481014144383364,-0.3567951581935595,0.4851211464901262,0.6312076580455828,-0.7458068099944061,-1.6328140701462377,1.8683343991808925,-0.7335517198214911,-0.20078085450646602,-0.5415455410881449,0.2031930602710549,0.01999694439228367,-0.8913978943850268,-0.7780392705389215,-0.9539166792343727,-0.19685589525515113,-0.9236938405780578,-0.7879726045304498,-0.8867429400256214,-0.2283277796647622,-0.7972712909450671,-0.47983730454994533,-0.5848025793468448,-0.45902975486961833,undefined,1490484657170
903d185fccf839df,-0.4740983220014609,-0.45423976479367917,0.33199880586048885,0.37672514901122967,-0.9325436377612906,-1.678588279797408,1.965321646244638,-0.28076128550428975,-0.27160638398160264,-0.27283494486023,0.1700651921949399,0.04645844408091115,-0.6085255124777184,-0.7567451213745994,-0.9602324966503225,-0.24535046940689212,-0.9944113277393216,-0.7722162411538619,-0.9009464661909148,-0.2987602683687253,-0.8057457367673381,-0.4950004487436722,-0.5808016110388083,-0.49714944789999593,undefined,1490484658669
903d185fccf839df,-0.45885214121567786,-0.45013060135084476,0.6197415547908919,0.7329577027184315,-0.9494224619181976,-1.6943642179146892,1.9001629424508142,-0.7361645625595659,-0.19958888678831307,0.1078364391006165,0.2007096220906458,0.03954113468798904,-0.669451871657754,-0.7123050824488927,-0.929706113293708,-0.25949477201980603,-0.9637324849752751,-0.7716146113771664,-0.8834264505078346,-0.2792042442404938,-0.7937877072860202,-0.46281287635577195,-0.5665955859328334,-0.46421914114360024,undefined,1490484660167
903d185fccf839df,-0.3479709738421885,-0.4319332533210511,0.7224614225152852,0.7158976047218284,-0.8693380263971034,-1.7106525875309573,1.8824117512633338,-0.8575974019860004,-0.23620065579483307,0.1854105094199098,0.25272992923433324,0.0448314642412801,-0.7434338792335116,-0.7104534325072522,-0.917074522635211,-0.24737111434951004,-0.9713191373600242,-0.7672575457506274,-0.8699365994556881,-0.3023789076257879,-0.7934842032537269,-0.4555121052987024,-0.5369371573136011,-0.47096007596167716,undefined,1490484661674
903d185fccf839df,-0.2745122345313439,-0.5111802780674384,1.0089286580965322,0.9807225311512535,-0.9286864970327346,-1.7923599706907092,1.9495585896182392,-0.5299456768252468,-0.22917394374604494,0.12655456615958782,0.18049550291000016,-0.059971222863650434,-0.7347301136363636,-0.6873075556966423,-0.8844429011637043,-0.23524748494393555,-0.9369913226289347,-0.7257640984275453,-0.8582729169782649,-0.24799159622284592,-0.7588539236942025,-0.43879699814980627,-0.5501770068422831,-0.4775465907901956,undefined,1490484663193
903d185fccf839df,-0.43528988064060037,-0.6362145895792632,0.579547254870087,0.6086240041268958,-1.0463240156881233,-1.8304360441528733,1.9740578585884785,-0.45413770759536876,-0.3094218890834482,-0.1866600101565628,0.09341098333119369,0.07319220608919054,-0.7434338792335116,-0.6623100742721028,-0.8612849947727715,-0.2514123194405813,-1.0029347681479504,-0.7200961139802328,-0.8498837410185137,-0.1884920016183146,-0.7395975743145893,-0.443828951254403,-0.5735613413783053,-0.5174364264111172,undefined,1490484664679
903d185fccf839df,-0.7014047099413027,-0.767119051072302,0.4423745491862621,0.48659894316867514,-1.2315694171543698,-1.809594009422521,1.9449643067306617,-0.6596549033955166,-0.2991534527510404,-0.2721622383440762,-0.060484914757137055,-0.035712930470077724,-0.7695451760249554,-0.6900850629860393,-0.8802323881227507,-0.3564838920585665,-0.9690081451079348,-0.7327050045927703,-0.8604419290596139,-0.19064778039982036,-0.7508210128071158,-0.43610871029135245,-0.5742201308263506,-0.479862948467321,undefined,1490484666166
903d185fccf839df,-0.7055627325832451,-0.7770983060403657,0.23246861098830854,0.3555796699378006,-1.3380160940030115,-1.7858707080670082,1.9180403505867665,-0.819608853547281,-0.3017073443162735,-0.3359962156980465,-0.03178259436938054,-0.0691552114762924,-0.5214878565062389,-0.6567550337917594,-0.9339166557835966,-0.3766899881757265,-1.0079478945536757,-0.7244468454007346,-0.8966434284927223,-0.2628048945360487,-0.7708210578651052,-0.4515410717637869,-0.607509232619241,-0.49761417495735744,undefined,1490484667656
903d185fccf839df,-0.587751481465972,-0.7770983352683579,0.4098358707298877,0.38793039970811816,-1.3111087127789582,-1.8517625556327866,1.9418453640128648,-0.7463303882613542,-0.32687949511014025,-0.4012602288825076,0.044130605034696416,-0.006406833471247076,-0.5737104500891266,-0.6428675361970975,-0.9749693327859456,-0.36254575622461643,-1.0276323094443929,-0.7366250963636559,-0.9362803623170787,-0.25641453847769424,-0.7861109248725946,-0.4753999280500081,-0.6119469209948476,-0.5090254617341874,undefined,1490484669175
903d185fccf839df,-0.5198367608425807,-0.7495086011286605,0.5629589737703734,0.5308903201842364,-1.1391112858894232,-1.8339951187756738,1.9696950078333983,-0.5241836983829081,-0.3108480065652594,-0.35108576095145927,0.06385649989860613,0.012747068461772926,-0.8000083556149733,-0.7641517923704214,-0.9939167261359249,-0.4393288649403815,-1.0947063073153096,-0.7655666498607404,-0.9521071483977812,-0.32074924524853043,-0.818488719245502,-0.49981485282173393,-0.6200401614208609,-0.5025895323472361,undefined,1490484670722
903d185fccf839df,-0.5156787209479334,-0.7495086011286605,0.6331399089014429,0.6115597469776791,-1.1518346931560166,-1.8358864608049341,1.9414245944111599,-0.7156895142054605,-0.31249924811226076,-0.31455796052946394,0.0644379739245228,0.04524119835039316,-0.691211285650624,-0.7771134585188758,-0.994969378323423,-0.45347309689149157,-1.0900078599382519,-0.7755916999899585,-0.9564101872582152,-0.32746296743618675,-0.82539117765007,-0.49781372980635263,-0.6204460214379999,-0.4993470174716742,undefined,1490484672939
903d185fccf839df,-0.529538853930091,-0.7770983060403657,0.6261221711800652,0.586037207258218,-1.173290655549838,-1.8289429987803085,1.9393523071867633,-0.7316103778533853,-0.2925077190966122,-0.39141783824291587,0.09893826646241682,0.014378648043902145,-0.7347301136363636,-0.7808167972544805,-0.9791798531891328,-0.4858028506789476,-1.104761433049714,-0.7803097430019322,-0.95095267476829,-0.3552725608545418,-0.8322890845347196,-0.501592922096538,-0.6136817286874722,-0.488418043094097,undefined,1490484674116
903d185fccf839df,-0.5641891863854848,-0.7753372902739938,0.5444562790306533,0.4588745881286446,-1.1719740873211726,-1.8818679718200546,1.9526433527474223,-0.7044681626990107,-0.2781325414800553,-0.3617902262274623,0.06467716874466332,0.03314929526613552,-0.7956564728163993,-0.7993334779817292,-0.9928641033973618,-0.5161119877885073,-1.112647540856152,-0.792247342033136,-0.9472093808085754,-0.3699164822316388,-0.8425651549598373,-0.5033485293787496,-0.6374871263031365,-0.46991381425616896,undefined,1490484675170
903d185fccf839df,-0.6833864680536784,-0.7547917361117529,0.6975788737972402,0.6902382436441086,-1.1528838318213068,-1.9177429149076777,1.9408144894352901,-0.8000700763204098,-0.25757419732418485,-0.29448370890203757,0.04202621105031828,-0.010807893556611872,-0.7129706996434938,-0.8206276206706641,-0.9949693856856567,-0.41710210974824274,-1.0698582491578323,-0.8054388641616134,-0.9512605343734593,-0.3707480026744512,-0.845820010443122,-0.49671203289429094,-0.6416496302476756,-0.516496983586516,undefined,1490484676678
903d185fccf839df,-0.6930886301520082,-0.7365942565559938,0.6242075034031093,0.6649594406551851,-1.1558358294260127,-1.9643882601649527,1.97996703797027,-0.5782357809717582,-0.2586092829474116,-0.26878265883723157,0.09632932041613125,0.012211183431084177,-0.7651932932263815,-0.8372926514562723,-0.9802325274633324,-0.4150815637321502,-1.066828855278408,-0.8138490146552331,-0.9421506872910193,-0.3172538039883281,-0.8385616802397077,-0.48805496364810136,-0.6389690639629042,-0.5101249383588434,undefined,1490484678142
903d185fccf839df,-0.6764564360680094,-0.7747502460478801,0.36645113554602143,0.4900103066434535,-1.190395771643311,-1.9591614465500677,1.9715200956272558,-0.6477407198889018,-0.2903798611544881,-0.3270837820899203,0.13640820908701712,0.06037232648481931,-0.865286597593583,-0.8252568167540253,-0.9539167013210741,-0.42316398804665345,-1.0433879231291348,-0.827230524800589,-0.9226365806854808,-0.36956232364054414,-0.8476176031714572,-0.4716490349661975,-0.64035796330347,-0.4931859202283298,undefined,1490484679663
903d185fccf839df,-0.5946815134516411,-0.726028001203805,0.2752154624291221,0.33894999750295046,-1.0803285266243958,-1.9144563589833183,1.9860997438375791,-0.48405937690060513,-0.3379991947540172,-0.2727463775119084,0.10994525269623506,-0.009627113341985787,-0.8087121212121212,-0.797481789187765,-0.966548291979571,-0.43326702903905306,-1.034720840918962,-0.8340701042656156,-0.928954700485043,-0.3726266135170036,-0.85486216038734,-0.467824677574206,-0.6341780025608953,-0.5044372872058513,undefined,1490484681177
903d185fccf839df,-0.561417194294463,-0.6127339896544078,0.4564105329029165,0.48351722849729195,-1.0819845254620097,-1.8204273016449728,1.98555274995475,-0.378558669791211,-0.3591020278722436,-0.16898707616072803,0.12899554161716095,-0.00817688367073511,-0.7826008244206774,-0.7798909528574984,-0.9633903575037779,-0.42720520727008543,-1.03518606481406,-0.8143303188564048,-0.9444666305167236,-0.36794548598017174,-0.8477458587929291,-0.4692533543339792,-0.6339493946195219,-0.5345608251975671,undefined,1490484682653
903d185fccf839df,-0.5489430746105213,-0.5775130897671246,0.513831760077336,0.6203165226412465,-1.1310370144844262,-1.7516285632680217,1.9347501584580353,-0.6366463224752639,-0.3789786817716583,-0.18147374283908257,0.1739705636682018,0.02076041979485436,-0.7826008244206774,-0.768780949601459,-0.9549693093351695,-0.4676174136367663,-1.03654972053073,-0.7994035699831487,-0.9236581145474085,-0.43414340180946115,-0.8482770444031077,-0.4548184449806033,-0.6411070002907299,-0.5206781836473211,undefined,1490484684174
903d185fccf839df,-0.5170647687515589,-0.5229205195738815,0.39771353824239153,0.5519219112000564,-1.2216951448346163,-1.747470870494453,1.89085606118408,-0.9249960707235415,-0.3082438662183935,-0.2125313534417855,0.19657971592921455,-0.009116275122242253,-0.6172292780748664,-0.7354509204071791,-0.9412851033003433,-0.5686477387665979,-1.0229668296997216,-0.7935645949824335,-0.9012123446739073,-0.46152183576668754,-0.8427524372638678,-0.45806362540816065,-0.6374184472286706,-0.5152559575756706,undefined,1490484685659
903d185fccf839df,-0.4131136333637386,-0.5006140081012534,0.39771353824239153,0.5729580483643635,-1.1328781521857731,-1.7932217878612648,1.8642529463003576,-1.1312665218059583,-0.38815138444596975,-0.14483783808881556,0.1720023500536389,0.0160017765392651,-0.6825075200534759,-0.7021209106390609,-0.9412851106625771,-0.5221737247633103,-1.0066290699895177,-0.7754967072300375,-0.9156327728144151,-0.40451678886673614,-0.8254220139110693,-0.4798796145807685,-0.6497764738597973,-0.5450532796376624,undefined,1490484687223
903d185fccf839df,-0.5170647860042639,-0.6291703803738143,1.2577533828661347,1.218806015096296,-1.158612967548379,-1.8571920134668962,1.8483189498300172,-1.3119786377257756,-0.33314028172829036,-0.042792150229142456,0.0713613518783292,0.08481664438058645,-0.6346368092691622,-0.6974917469326359,-0.931811395582003,-0.3766900023080873,-1.0126487771193995,-0.7431163658753325,-0.9140724848575389,-0.3444166568687591,-0.7999803037375421,-0.4697892644890206,-0.6603518291910297,-0.5513368781691761,undefined,1490484688675
903d185fccf839df,-0.4214297131530331,-0.6203651846299858,1.3221926018988814,1.3585667688941139,-1.0373548816489582,-1.933747119192245,1.8734756665236034,-1.2009128313328763,-0.38798686756171324,-0.04722059887312111,-0.021750498099305765,-0.05068059489263973,-0.7434338792335116,-0.6947142461186261,-0.89917978147273,-0.2999068794599615,-0.986567918066736,-0.7310647735755655,-0.8982526940462136,-0.22572544055346572,-0.7685109243807128,-0.4678027919828169,-0.622065527301358,-0.5204735922846059,undefined,1490484690173
903d185fccf839df,-0.23431771086144812,-0.6896330420922866,0.6816287305775287,0.6732855043818404,-0.9158602261820339,-1.9293960997380093,1.9989726396485397,-0.3523985696787959,-0.2866064345428136,-0.27371400001570223,0.05275587089260389,-0.019177763853735142,-0.7913045900178254,-0.6567550467425339,-0.8897060811166235,-0.15846430556636668,-0.9761548001477534,-0.7044537439607945,-0.889492686950955,-0.09317562089983658,-0.7281213143102918,-0.4824493877326194,-0.640864317989431,-0.47206931238217353,undefined,1490484691664
903d185fccf839df,-0.19966741291146406,-0.7377682719382403,0.6018775062050729,0.6311912073468842,-0.8306123734163235,-1.9298572890931784,2.0087055511714285,-0.2727804058004668,-0.2699290610517727,-0.302140745411253,0.0793187420699058,-0.04509443700338889,-0.9218610739750446,-0.6410158668292951,-0.9033903018759173,-0.11603159558067562,-0.967396223448328,-0.7117936269064951,-0.9117635358490772,-0.003217904770062519,-0.7206473733997485,-0.47790430050007116,-0.649615137209669,-0.4620297881160958,undefined,1490484693162
903d185fccf839df,-0.2412477773525269,-0.7630099753134446,0.7218235387722325,0.6880750288899103,-0.8781528661083806,-1.9025888857685902,2.02306428646311,-0.16914496115200647,-0.2660556710276575,-0.32367270161487743,0.12310859378127338,0.027011034851833194,-0.7913045900178254,-0.6632358992429229,-0.8181270428443614,-0.12815523911861088,-0.9885625843415196,-0.7175692714018599,-0.8848328108765026,0.004065560087578656,-0.7161663175180032,-0.4617523307878441,-0.6578472422509427,-0.4462231395196549,undefined,1490484694664
903d185fccf839df,-0.30777648467770247,-0.7765113202702366,0.6644028198717119,0.6146468322762877,-0.929725353527905,-1.9073638256270047,1.9910253599636183,-0.4002829765104677,-0.2818902997848614,-0.31100257782425167,0.11466333014904835,0.010600628948577343,-0.9044535427807487,-0.6734200645773676,-0.8581270971081473,-0.14634073269023526,-0.9650689254880569,-0.7263087340531541,-0.8947472909222584,0.03903543206546192,-0.7190362951522359,-0.4576214891620675,-0.6356175965072303,-0.42003500525386955,undefined,1490484696161
903d185fccf839df,-0.37984931420656054,-0.7688801252946585,0.8060412200308047,0.7802334318214648,-0.9902361105355622,-1.9076083949996512,1.968700943171662,-0.5633658737324785,-0.31411617290501004,-0.3058255545164615,0.1094772148911117,-0.00959556487600176,-0.8913978943850268,-0.692862557324662,-0.8612849947727715,-0.10996977381170799,-0.9922523432470651,-0.7443386247414456,-0.9047597283266839,-0.061393229539088205,-0.7472326315789648,-0.4522051395823767,-0.6747526099039481,-0.4299129707257028,undefined,1490484697665
903d185fccf839df,-0.4768702450816632,-0.7741632602777511,0.6803529630914232,0.6569692187943262,-1.0427754525204533,-1.9157304525713723,1.9029820980489733,-1.0218446750224484,-0.35131665206658397,-0.31242660431722247,0.1072917702251071,-0.02749600512506465,-0.9044535427807487,-0.7252667550727344,-0.8686534128405831,-0.18473222345249432,-1.0068365782853161,-0.7933872741208062,-0.9161715267931398,-0.12312559890834103,-0.782605448383267,-0.4397195571339654,-0.6583455573715515,-0.4743035998075725,undefined,1490484699171
903d185fccf839df,-0.45746616242287186,-0.6919811020847721,0.8047651984077498,0.8529368689359409,-1.0274497624967611,-1.8901064913508565,1.9196498123044756,-0.8636432636488122,-0.33393770028169034,-0.3596885154422828,0.11583517965438955,-0.04149955031820364,-0.8217677696078431,-0.7104534130810904,-0.8823376483243444,-0.2857626192441299,-1.004671817754546,-0.7900688110414296,-0.9206914669864968,-0.1889231539713437,-0.7943109996663145,-0.44334583346104883,-0.655828009630059,-0.4763311989184217,undefined,1490484700663
903d185fccf839df,-0.31609263347781646,-0.6720225629206525,0.5042619791098485,0.6717036161826654,-1.0174829193797852,-1.9017526878098174,1.9597701306091206,-0.5977700608566503,-0.33725330964131234,-0.29797246991159493,0.08253707365878905,0.010780675910417476,-0.7390819964349377,-0.7123050630227309,-0.9276008457298806,-0.34233963184273486,-1.004968148600721,-0.7888908838828547,-0.9413600459736459,-0.24478871508706904,-0.812878735954687,-0.448679712730675,-0.6480665295365045,-0.4927578390915207,undefined,1490484703125
903d185fccf839df,-0.39509539147611433,-0.6233002596205928,0.5935829844497919,0.6847517736255718,-1.0737045381397283,-1.9127280630514802,2.003569548673254,-0.3317981855020081,-0.28880026012461896,-0.270506529601824,0.057980468689566925,-0.06003908758807773,-0.678155637254902,-0.7224892672094991,-0.9223377025881303,-0.30798934617154705,-1.0201924403888476,-0.7933049457201202,-0.9448794419853069,-0.23844455607476678,-0.8128999868630032,-0.4533229692740511,-0.636561049196233,-0.5062779842606632,undefined,1490484703662
903d185fccf839df,-0.586365502673166,-0.615082020418901,0.5208500060726126,0.5818030365073172,-1.1775797934454604,-1.9554090430213347,2.041049531730137,-0.14231942998986857,-0.24777206516087952,-0.3850199685884716,0.08157833110225884,-0.1259651907865114,-0.3822276069518717,-0.767855105204477,-0.9739167100473826,-0.29788629104678666,-0.9736259292484494,-0.8141023324521587,-0.9609371238097867,-0.3101705178714283,-0.8391382845865359,-0.4541455960392957,-0.6235921337856647,-0.5110062798406863,undefined,1490484705154
903d185fccf839df,-0.5558730720907805,-0.7923607252195141,0.7014071928033543,0.7180805725539943,-1.1758209383116374,-2.056253454940387,1.951862292214784,-0.8468703728722915,-0.28479798270082624,-0.3080527541611056,0.12540978193211097,-0.13036760010743093,0.4837970699643494,-0.8058142916297946,-1.0044430565928282,-0.1948353351066978,-0.9500363677266149,-0.844487796387922,-1.0025821418847356,-0.314127917476074,-0.864226371935854,-0.458812277924648,-0.6112276257466168,-0.5213197579961311,undefined,1490484706664
903d185fccf839df,-0.32995283547079346,-0.7952958294381133,0.7084251846616815,0.6923425548048522,-1.0454394436442682,-2.058142467761688,1.9185242344240774,-1.0436606688292445,-0.20331302139457513,-0.11079296277794284,0.16308848607426693,-0.24979162302550353,0.0007380793226381577,-0.8122951635563455,-1.0486536533465027,0.13452379841905798,-0.8433617556952473,-0.8545635086380994,-1.0240133743218112,0.12398865341173057,-0.7740147524656245,-0.46089095566036586,-0.6144374361702845,-0.49677247694214105,undefined,1490484708161
903d185fccf839df,-0.36044516253694975,-0.7935347552157568,0.6829047522005837,0.7040312165644287,-1.0166703448685885,-2.0553543681596866,1.9402359253406354,-0.8935870914111403,-0.18917245560954907,-0.08192973348358891,0.17160418130834176,-0.19928082892485727,-0.42574643493761144,-0.8484026417615371,-1.0581273463403753,0.2416159453178573,-0.8894850484004849,-0.878077727648536,-1.0475016687773717,0.1997951983917643,-0.7775702432647784,-0.46391033702626805,-0.6104272258272535,-0.4748095088224641,undefined,1490484709676
903d185fccf839df,-0.6224018139213658,-0.8980235417933331,0.7530859414686026,0.7554783689654294,-1.1042633420985124,-2.0880382532180346,1.9993565920017535,-0.541529316465462,-0.18781662421568737,-0.11282756397904418,0.1474676237754572,-0.26440819550550654,-0.15592970142602494,-0.8761776887539592,-1.067601043015365,0.18503896098397382,-0.8690468257414168,-0.9116106641988598,-1.063916186641394,0.2745700506097655,-0.7857986842526026,-0.4598493087428363,-0.5904195664415653,-0.45087023714500907,undefined,1490484711163
903d185fccf839df,-0.6653683296822834,-0.8598675303804525,0.8749463876757687,0.8476961001954919,-1.2298517077994797,-2.0636348142917833,2.0147514771907638,-0.4550384506317514,-0.27454282995944845,-0.3043967002044847,0.12469539197670262,-0.22377560794773058,0.5055564839572193,-0.846550978869122,-1.0770747360092376,0.11835892152532995,-0.8879139788500363,-0.8896416825875237,-1.0646298611673033,0.32295196699627415,-0.7688059648684883,-0.46121303540981784,-0.5906423290598793,-0.4567532295766773,undefined,1490484712654
903d185fccf839df,-0.6321040105251053,-0.7765113421912309,0.904932768749084,0.8892124357480887,-1.2030163228477562,-2.0374797871801418,1.9834094470378558,-0.640576769193471,-0.2939406165685432,-0.2015236606086,0.16123327351973218,-0.32721830194424123,-0.11676275623885918,-0.8085917924438044,-1.05286417374969,0.05976120745466395,-0.9216705520825815,-0.8824854562209975,-1.040378914442409,0.3135897126899621,-0.7614718591051367,-0.46778990155410616,-0.6005237112824292,-0.48265832959496835,undefined,1490484714180
903d185fccf839df,-0.5433990904284777,-0.7594878926317145,0.946403852703792,0.9660001686462248,-1.2304688459848405,-2.045725293804327,1.9620633139918109,-0.7898090692128328,-0.27644362989191806,-0.2685062851543066,0.21013492763717986,-0.20111851093013167,-0.1124108734402852,-0.8363668005839029,-1.0339167951241783,-0.223123799008918,-1.0401612361384147,-0.8946510413131741,-1.0436184370586241,-0.060269144852383244,-0.857304480208749,-0.4638253369292116,-0.6073371426580699,-0.5083924785250975,undefined,1490484715664
903d185fccf839df,-0.4463779697736215,-0.7518566903491383,0.8124213281460791,0.8031372585150952,-1.1868369213122205,-2.043915474769415,1.9127150001441657,-1.0789301452596818,-0.354015952479202,-0.6500537623955486,0.20008857259000623,-0.20705299755241263,-0.2212079434046346,-0.8335893127206676,-1.0423378432927866,-0.0008569537055692197,-0.9366969019180628,-0.8927511582819331,-1.0419531955010883,0.1136562937440366,-0.8110348079182834,-0.4783757275853189,-0.646245232279512,-0.511565513387047,undefined,1490484717158
903d185fccf839df,-0.4144997156727738,-0.7911867390652597,0.4940532978515105,0.4820854099991706,-1.070001692383228,-2.0319571608777194,1.9221376011434754,-0.9844350258617462,-0.35642673599739577,-0.42959950534270835,0.17109635457691366,-0.15777917879076608,-0.0036138034759358177,-0.7928526384321147,-1.0433904807558172,0.28606939917269164,-0.8804916682673087,-0.8933781197724349,-1.043387541810329,0.24338819607704595,-0.7778803376351953,-0.4768484335102256,-0.6291491219419633,-0.49744868201043435,undefined,1490484718738
903d185fccf839df,-0.3923234856486169,-0.7389423165484793,0.5667867845025887,0.474441350994825,-1.0853479522645972,-2.0015768940962455,1.965942279862058,-0.6706072742549549,-0.3901866643312077,-0.4292118626698086,0.16046348509368455,-0.2718356345415712,-0.517135973707665,-0.7956301327707372,-1.0181272920765896,0.15472988040385724,-0.913515984835401,-0.8924598430444097,-1.0264062817453456,0.24468166616764933,-0.7709961346359601,-0.48367316454347575,-0.6503676442386542,-0.5113219919397548,undefined,1490484720160
903d185fccf839df,-0.5447850692212838,-0.8129063086097472,0.7664840414422043,0.777101864876683,-1.0708965508563122,-2.0313422416141194,1.9820577259624987,-0.6133581702136208,-0.3279406165808288,-0.16811118636060435,0.19508630921139697,-0.24604131494201753,-0.14287405303030304,-0.8280343110926479,-1.0276009850704622,0.26990446574952054,-0.9063964471576391,-0.8981214953951546,-1.0266371766939049,0.33704154159099375,-0.7533965511175631,-0.4783100561798054,-0.6747889655878881,-0.5208682524013767,undefined,1490484721672
903d185fccf839df,-0.580821449480303,-0.7007863270565929,0.9374711930685089,0.9581555534512708,-1.001241810741863,-2.0066336718610605,1.9305187832108321,-0.9165941367885246,-0.3713938512314917,-0.08767613954397477,0.1453042937285685,-0.29042386543202,0.42287071078431376,-0.8530318313695111,-1.057074708877345,0.23353361992987942,-0.9366802170239119,-0.8917378876534336,-1.0146236535870088,0.26785632803170245,-0.7649343344946308,-0.47350738718836133,-0.6686367577652609,-0.5350845232915671,undefined,1490484723165
903d185fccf839df,-0.4505360269209736,-0.7154617020096276,0.8832406552941002,0.8513377401967533,-0.8881299963607696,-1.9707657172553463,1.8754716857812281,-1.2292033413122818,-0.36007111619360505,-0.11019960814917668,0.11519742686759978,-0.3579949649797329,0.40111129679144386,-0.8493284796831319,-1.05286417374969,0.011266689832366028,-0.9802526834602904,-0.8812568665594332,-1.008585406039002,0.039143217616073984,-0.8187554187836543,-0.46522044147924657,-0.6198036102125933,-0.5298721578677216,undefined,1490484724667
903d185fccf839df,-0.4186577210620113,-0.6643913679450746,0.6478142846350489,0.6836312324824663,-0.8630637507435178,-1.892354207989792,1.955946378565109,-0.620172679156083,-0.27470555019406434,-0.18657673391251658,0.15706099717568134,-0.19979269343258593,0.19222092245989306,-0.8530318184187365,-1.020232559640417,-0.07764004828897349,-1.0089066048484228,-0.8732203601026629,-0.9811928912365965,-0.05267771323978588,-0.8261661868362219,-0.47334263181193187,-0.6387109325515633,-0.5434815163017128,undefined,1490484726162
903d185fccf839df,-0.26481007243301413,-0.7770983060403657,0.8041273146646971,0.8633000589580028,-0.8253872397128836,-1.8802118828960757,1.9484488083664933,-0.6310698299119697,-0.14302591155937744,-0.20934799041050592,0.15970845786390617,-0.14394029907864567,-0.865286597593583,-0.8502543435062758,-1.0023377890290006,-0.06955763810683101,-1.0173018047929752,-0.8466979917768888,-0.9935352654150751,-0.08430612079226231,-0.8240335309483845,-0.4701366906362874,-0.6329869133700006,-0.541086890154971,undefined,1490484727655
903d185fccf839df,-0.32302263095807576,-0.8111452343873907,0.7754167010774873,0.8296561387173965,-0.8497026257013519,-1.8233761165766678,1.915063418303528,-0.7912524079258213,-0.0932355057042597,-0.1081035566675516,0.17579332128342254,-0.004168761365958594,-0.9740836675579323,-0.8345151571176497,-0.9718114645702565,-0.223123799008918,-1.0106947136456066,-0.8207329230428551,-0.9927446258655322,-0.1996404793658426,-0.8372076220046575,-0.4707011363205407,-0.6057590222839001,-0.5065682798399369,undefined,1490484729154
903d185fccf839df,-0.4921165293836754,-0.7935347844437491,0.6905611360758624,0.8028345794161572,-0.8774945798874992,-1.809577704285456,1.9203309256401897,-0.7508198460678815,-0.1606323046937244,-0.08274787545339884,0.18029573213262262,0.08524198313929536,-0.9479723707664884,-0.8058142851544073,-0.9602325040125563,-0.29990689359232225,-1.0040213711555066,-0.8182757420310434,-0.9916041452950247,-0.1768815771039295,-0.8306375082498931,-0.48308431256007694,-0.6116519110086056,-0.5094246592330949,undefined,1490484730710
903d185fccf839df,-0.4339039018477943,-0.7817944260253368,0.6784390577253157,0.7170879015259862,-0.9592350176650978,-1.839766975337014,1.9196287675916355,-0.8127848978294011,-0.25649748212594914,-0.08745275522900933,0.1678165163002698,0.04657163495053057,-0.6650999888591801,-0.820627665998375,-0.9528640564958096,-0.37062820880384123,-0.9927693459606057,-0.8235447505283803,-0.9838796658180226,-0.270904484258528,-0.8497298700856312,-0.47713094286086094,-0.6116611526346862,-0.5054381705973873,undefined,1490484732155
903d185fccf839df,-0.37014711760282104,-0.6309314838241631,0.6427101981428293,0.7136073731496166,-0.9918201089717708,-1.8337249291148539,1.9333326833921514,-0.7023818006058075,-0.3185085815449044,-0.30152928678191904,0.1841224965304283,0.061899077312790686,-0.6128773952762924,-0.8085918118699662,-0.9623377494896824,-0.394875538276794,-0.9793107598057669,-0.8234117585007618,-0.9856848435441555,-0.31688424101490853,-0.8628346189706502,-0.46390622876193277,-0.5978589049812233,-0.49745650438468425,undefined,1490484733718
903d185fccf839df,-0.12620857008439024,-0.6256483488410707,0.6994930333002972,0.7615105503518405,-0.9096168156636588,-1.8260780366534457,1.9500082708214563,-0.565346608800475,-0.372555138677621,-0.4256757257688272,0.22896206100694996,-0.00614364511202568,-0.9262129567736186,-0.797481789187765,-0.9665482993418049,-0.33021601656952115,-0.9776446125236766,-0.8299093595331924,-0.9660238042772306,-0.288782076433034,-0.852845820218178,-0.45865156146767366,-0.6104142742796967,-0.4957403665576818,undefined,1490484735168
903d185fccf839df,-0.06660996375570316,-0.6004066746938587,0.8105074227799716,0.827666241846596,-0.8004341392697079,-1.7286995309378075,1.9374903822415004,-0.44281737902230356,-0.3234897889335565,-0.6897137891966668,0.1874548225935496,-0.14478206699548482,-0.4866727941176471,-0.783594291593103,-0.9454956016168292,-0.2332268965307607,-0.9589787981964889,-0.8374898921682608,-0.9451453203398411,-0.20626180848453013,-0.8290629748082105,-0.45594563196304577,-0.6040534769662067,-0.5307084055794746,undefined,1490484736681
903d185fccf839df,-0.2232297079919513,-0.5193985464971225,0.8226292469935689,0.7726546561669255,-0.7274879759209014,-1.6136886866887528,1.913756389745508,-0.40631741357218787,-0.31792524445365045,-0.6623520696607897,0.1275284980833664,-0.132692311310686,-0.05583639705882352,-0.7808168037298677,-0.942337740763374,-0.118052212258572,-0.9736279040012047,-0.8433795289245154,-0.9083001142387906,-0.18998565093430275,-0.8164482572644901,-0.45885718944868964,-0.6111031837846669,-0.5378782378685127,undefined,1490484738160
903d185fccf839df,-0.18580721091848706,-0.6561730995153905,0.6414344306567239,0.6871681420362089,-0.815214687506402,-1.52287164966691,1.8241668065368046,-0.8682048936604836,-0.2949903416425658,-0.4262037206005297,0.10869644123063568,-0.10329250593314615,-0.6607481060606061,-0.7382284212211889,-0.9370745608104547,-0.05339271881602068,-0.9323189774089659,-0.808731993882794,-0.9096085178054416,-0.1763888240764125,-0.7969499066638871,-0.4679043889145536,-0.5929159805068972,-0.5327849782474204,undefined,1490484739662
903d185fccf839df,-0.17610510057827192,-0.6643913679450746,0.7045973739294662,0.6871681420362089,-1.0026303750508083,-1.5512324673330955,1.8351594007276717,-0.9065003962917637,-0.1960642785267294,-0.2283984486387154,0.11817916500974855,-0.10772616630950908,-0.7695451760249554,-0.7428575978783883,-0.9139166396950544,-0.021062993293286175,-0.9472553304553802,-0.8083836827113774,-0.8938027223102957,-0.1325956455098823,-0.7786466568805288,-0.48794842042272746,-0.6131108830542489,-0.549784503251474,undefined,1490484741166
903d185fccf839df,-0.3133205723759752,-0.6661524129394387,0.6771627819653113,0.5627286813699758,-0.9663732900234339,-1.585458307821337,1.860713217220507,-0.8161411411085582,-0.2480816262384421,-0.39514446460623,0.13260348091499966,-0.09688157132041228,-0.4475058489304813,-0.7872976238533205,-0.9612850899399504,0.0031842655178627856,-0.9103265716525806,-0.8251786489507177,-0.946565673706322,-0.13886281176992293,-0.8059219395980146,-0.48642400995184054,-0.5903835346338656,-0.539527184341725,undefined,1490484742663
903d185fccf839df,-0.27035409112046743,-0.5728168528701841,0.8532540200838357,0.8679126258959425,-0.9136590896444864,-1.5515049888104004,1.9176485103944438,-0.3633670641793872,-0.2723639961015344,-0.5533368924290928,0.13484912976755928,-0.0006457559327737467,-0.4475058489304813,-0.7974817956631524,-0.9697061970064291,-0.19281470429644065,-0.9702537272289259,-0.8467169908293877,-0.9691233928474691,-0.22016660239354713,-0.8380248306768301,-0.4682824037259524,-0.6335711713429162,-0.5278666504682371,undefined,1490484744171
903d185fccf839df,-0.34935698714040425,-0.5604895963656197,0.7320317117566716,0.7623779262650734,-0.9174647991451355,-1.6072460113265572,1.8881815348249635,-0.6476573824453206,-0.283182886556888,-0.4811885379188327,0.10116240461341895,0.0257572481250101,-0.47361714572192515,-0.8308118248574323,-1.0044430786795295,-0.3362778383384888,-0.9913969784909562,-0.8543735194751312,-0.9913592571223213,-0.27844971856928946,-0.8638046621220781,-0.4666184464404905,-0.6315644842993452,-0.5249569157244971,undefined,1490484746158
903d185fccf839df,-0.2911443250991134,-0.5892533312735676,0.8481499335916161,0.9072418516637548,-0.8721768776434249,-1.6279855570143091,1.940945964943167,-0.32501531985544774,-0.3441298252943734,-0.4206633340697783,0.12580812120337367,0.11975584854213246,-0.44315396613190733,-0.8289601619650172,-1.0212851971034476,-0.37062822293620196,-0.9850901325007807,-0.8587495837167723,-1.0076548296296342,-0.28973677953913596,-0.8722102046947116,-0.46422415328607725,-0.6243221677904,-0.5224974577729871,undefined,1490484747163
903d185fccf839df,-0.12482259129158423,-0.6203651846299858,0.7817968091927617,0.8095368591291452,-0.7709347634082253,-1.720586790839408,1.8472196773169083,-1.0412410442940383,-0.36234857454247316,-0.5095954837281477,0.08569934820659808,0.1452862261686753,-0.8174158868092692,-0.8382185088040288,-1.016022024512762,-0.32415418066819274,-0.9922684656256279,-0.8708265076306854,-0.9953754270059624,-0.2703039412647615,-0.8697776548249567,-0.45802369692801403,-0.6322693634134219,-0.5388142425654648,undefined,1490484748703
903d185fccf839df,-0.08324212333429219,-0.7407034053848319,0.9196073986196394,0.9429620635718264,-0.597723626264671,-1.8304919423170056,1.8626960974122702,-1.0528302168766328,-0.35702104161878573,-0.29531681857942454,0.013770033665534849,0.019363500569747786,-1.0001949643493762,-0.8317376498282526,-1.0044430639550619,-0.3039481552128366,-0.9923092895772795,-0.8631889778104374,-0.9760222476317084,-0.2768174835808424,-0.8620601391231782,-0.42886686500477206,-0.6329914965365989,-0.5455387299915481,undefined,1490484750168
903d185fccf839df,-0.0499777696717044,-0.7424643919232115,1.163965920640075,1.2759571401072516,-0.6958491708763236,-1.852656983643755,1.8867246352288436,-0.9447146369539917,-0.3638213150505249,0.08417767104953668,0.013501348584352103,0.017127426469280685,-0.9653799019607844,-0.8261826611510074,-0.9497061514689517,-0.2837420732280373,-0.9975760839167607,-0.824437694435266,-0.9441867579776666,-0.321134210490692,-0.8395943574016999,-0.4243091141619939,-0.6162623937199823,-0.5626675448881021,undefined,1490484751669
903d185fccf839df,0.070605525294705,-0.6966772220697433,1.4453285614552036,1.5618677661913485,-0.6420858290253547,-1.8752459467065798,1.8923708353117918,-0.9101652546583056,-0.4841095786835313,0.30673327719736976,0.024489851552186935,0.03277971280077109,-0.9044535427807487,-0.7882234682503025,-0.9633903869527131,-0.182711663304041,-0.9141079415342854,-0.80246871284054,-0.9058092497440884,-0.2666237156301841,-0.8091673422578164,-0.43333619277279123,-0.6004446019637107,-0.55184269737101,undefined,1490484753163
903d185fccf839df,-0.058293952977228114,-0.6262353053832074,1.226490726032815,1.352952889033851,-0.8597311854491964,-1.858505703831264,1.9237312505197053,-0.7413818467517981,-0.46734100927055766,-0.08485242685399942,0.11795205304005521,0.015410200231232012,-0.9131573083778967,-0.7650776302920163,-0.940232458475079,-0.12209341734964324,-0.896939174038415,-0.7916710440090033,-0.8633595986018334,-0.26258932231745324,-0.785868657867643,-0.42283264125951914,-0.5999739771484692,-0.5700104612270898,undefined,1490484754659
903d185fccf839df,-0.4325178195387591,-0.6784796986719955,1.4631926100410226,1.4046604481669553,-0.9866052563541683,-1.8509915782748243,1.9604065262869739,-0.5354402356581135,-0.4225636143063609,-0.11918015278466511,0.15847569167433773,-0.020006341274701724,-0.9044535427807487,-0.8058143110559564,-0.9254956149772221,-0.10794914300145084,-0.9318005867629324,-0.7982193069686101,-0.8453638001950993,-0.19107894073599913,-0.7691850753565775,-0.4203648638493721,-0.6218766465134078,-0.5751383344443562,undefined,1490484756187
903d185fccf839df,-0.3230226999688952,-0.6661523837114464,1.1614136232570158,1.23650753726196,-1.0127206437775282,-1.8380014117625252,1.985068851452134,-0.3599820948803658,-0.43152353510250463,-0.05780893780068185,0.20080217950020943,-0.033640613710413804,-0.8826941287878788,-0.7808167843037059,-0.9465482538043274,-0.13219645834204286,-0.9328991925890945,-0.7789164942191328,-0.8773252316007669,-0.21397642907424028,-0.7776953174026412,-0.43429188150270104,-0.6168494856124872,-0.5520749396196073,undefined,1490484757677
903d185fccf839df,-0.42697373184048637,-0.5933625239443944,1.0950604988581614,1.0570069370266137,-1.0179869186627035,-1.7900237429248,1.9666496985650619,-0.42594382479872106,-0.4603870305272168,0.1814700749967152,0.15779219190799887,-0.0391799464376205,-0.9088054255793226,-0.7595226221886092,-0.9633903869527131,-0.20089711447858313,-0.9855940246347398,-0.7896001709558795,-0.8850077304082551,-0.19563688056117529,-0.7851311234905978,-0.44788963059761533,-0.5955347066842118,-0.5197706590232122,undefined,1490484759166
903d185fccf839df,-0.38400731959579804,-0.5276167272428296,0.955973887808229,1.00628514061788,-0.9566018823860737,-1.7840422561893075,1.9122968713449031,-0.734039889914989,-0.5834923195346023,0.3755513278844956,0.044505557821264884,-0.09019535223338593,-0.8217677696078431,-0.7382284406473507,-0.9191797901990385,-0.22514442981917515,-0.9958500595708214,-0.7812343523912648,-0.8925362990522522,-0.22791202043956693,-0.7882929910924547,-0.45616268103411917,-0.5847269147899203,-0.5431880062392435,undefined,1490484760685
903d185fccf839df,-0.1289806829443461,-0.48065549816512626,0.8998289363938138,0.850752986404947,-0.9063768233971404,-1.7564058332087358,1.9090122410574397,-0.680067365213225,-0.5849663249499238,0.27057121760940017,0.02646128292688148,-0.07183853816433268,-0.6172292780748664,-0.7465609495647675,-0.8602323720342085,-0.16048492224426306,-0.9518532253035765,-0.777529581142807,-0.8863930994756704,-0.16702656717187478,-0.7741550408749666,-0.45995577237084656,-0.5696485298400454,-0.5266857163869508,undefined,1490484762214
903d185fccf839df,-0.012555445125288818,-0.502962068093739,0.8054030821508025,0.8390989834282991,-0.8299335252018136,-1.7575937449824242,1.902529767663139,-0.7110324431155309,-0.5705414003228065,0.21456518948005873,0.07029836077741727,-0.014506321342090348,-0.6172292780748664,-0.7317476075731235,-0.847600766651244,-0.18675282599802995,-0.9446824829860772,-0.7818866468081027,-0.897601990487873,-0.15198228527081276,-0.7760902463009323,-0.47339347399360193,-0.5624205283544647,-0.5004929056281382,undefined,1490484763739
903d185fccf839df,-0.23431771086144812,-0.611559959658165,1.0344493446945795,1.1894448810649414,-0.7877004527817627,-1.7092760057882346,1.870803784109495,-0.8803640772297328,-0.38731340363429717,0.15802558346453233,0.21601445461040802,0.00012400568319010787,-0.7564895276292335,-0.767855105204477,-0.8549692288924582,-0.15240254032684214,-0.9411169054551206,-0.7839258548826162,-0.8854275407369305,-0.11986112629283409,-0.7665110075297836,-0.49141751192602073,-0.5507596152769627,-0.5188228924073431,undefined,1490484765172
903d185fccf839df,-0.17471913903817077,-0.6843498778812017,1.132703009669806,1.1870142600708582,-0.6140676006052526,-1.7666987400263094,1.8209742261794606,-1.2713025976710735,-0.3840603096060307,0.3156245793822763,0.21986985515829413,0.05615043392086402,-0.7347301136363636,-0.732673439019331,-0.8086533277637873,-0.13421706088757848,-0.9344030588737504,-0.7774092558662632,-0.8748693529405128,-0.12791451408244287,-0.7596538072754487,-0.4886500501476039,-0.5220046231556597,-0.5071983415696601,undefined,1490484766652
903d185fccf839df,-0.13313867108087873,-0.6467808887734406,0.8321995362349552,0.8870405191663391,-0.6828789097955662,-1.7916961350749785,1.9336140697439572,-0.5842025027045782,-0.3472154827702504,0.19451216569639504,0.18295399729135267,-0.019415479200524728,-0.7564895276292335,-0.8067401295513894,-0.8002322943196466,-0.05743393803945269,-0.9529464891380691,-0.7608676062666855,-0.855194320902106,-0.0685997034214926,-0.7407798029516018,-0.46994908632084736,-0.5068847664814117,-0.5071028325998082,undefined,1490484768188
903d185fccf839df,-0.06106591056284015,-0.5411180721996215,0.6656785873578174,0.6710905667634636,-0.7626136306931118,-1.8301355710384333,1.96254981872865,-0.45816512482731303,-0.37332203957767673,0.05079485011097854,0.15981254520448654,0.016816296842301973,-0.9218610739750446,-0.7993334779817292,-0.8339165311674827,-0.0655163764863167,-0.9711280130889846,-0.7567385272824693,-0.8752471803852979,-0.08692385365065902,-0.7463843200960801,-0.47818725209814417,-0.525730552017919,-0.47437599381468654,undefined,1490484769666
903d185fccf839df,-0.2398618330651306,-0.5728169113261687,0.5489224817798202,0.590721445340368,-0.9335824875587164,-1.7738448478874638,1.9762195517979866,-0.3237812722260482,-0.4281377499188852,0.18807513068822207,0.10244322523179424,-0.027432518488430774,-0.8565828319964349,-0.8030368167173338,-0.8739165780690347,-0.19281469016407987,-1.0057400765027316,-0.7414761327708046,-0.8826008288491339,-0.17487977424178233,-0.7586186982593193,-0.47149511726778504,-0.5427263667783927,-0.4997446982342205,undefined,1490484771160
903d185fccf839df,-0.3521290482422455,-0.6015807046901014,0.7071491630386265,0.7063219617549534,-0.8687723099771848,-1.7439048063713403,1.940711915053707,-0.49931195895198976,-0.4688936500708879,0.21954858671625666,0.11285994898945702,-0.08211502568521684,-0.6955631684491979,-0.7715584439400816,-0.9076008370035721,-0.1625056095839633,-1.0126885479547463,-0.7216666853188791,-0.919033222876012,-0.13850864795545223,-0.7582086080067105,-0.45023695024868643,-0.5347108945078932,-0.5027340984831924,undefined,1490484772671
903d185fccf839df,-0.23847571625068564,-0.5974715412472671,0.762656230709989,0.8277817339840825,-0.7864970201886888,-1.714416637382174,1.878953561279922,-0.8395915348335465,-0.44390217316785435,0.12534841943954764,0.112460945241766,-0.01583916516797658,-0.7042669340463459,-0.7882234617749152,-0.9739167174096164,-0.20291771702411873,-1.021839940832519,-0.7283669393198466,-0.9195509877128065,-0.15404567910112224,-0.7661727180121599,-0.45266956591762714,-0.5985766362688077,-0.5359172478460967,undefined,1490484774179
903d185fccf839df,-0.3992534313707616,-0.6279963211495792,0.6561085522533804,0.7989092901868834,-0.7109794316720286,-1.7109251068509506,1.894356319642735,-0.7336458465808317,-0.3871465306012717,-0.1895129847355429,0.1790634453958457,-0.05523421598011385,-0.9175091911764707,-0.763225941498052,-0.9897062204572051,-0.20089714274330467,-1.0419616500006332,-0.7291395586810284,-0.943410112643232,-0.13652224786015277,-0.767932251310734,-0.45724317605518006,-0.6182373873041097,-0.5448011439293187,undefined,1490484775723
903d185fccf839df,-0.1941232907077816,-0.5141153530580453,0.5731671467548125,0.6376811498841645,-0.6432995487198329,-1.7195945345448098,1.9073738499303479,-0.6311302323762603,-0.38648401181354547,0.06343243689882787,0.21202685484627523,-0.012521548864614686,-0.9566761363636364,-0.7363767583287738,-0.9886535903564083,-0.27768022319434815,-1.0053141476127663,-0.7148967680792773,-0.936399308187621,-0.06519664809523494,-0.7507066407745039,-0.4471600262356458,-0.5771324709137758,-0.5244310692186062,undefined,1490484777215
903d185fccf839df,-0.15254282275048953,-0.5886663747314309,0.6293120981692277,0.766199729400692,-0.7151245696130615,-1.7470096811383777,1.8920604891724715,-0.7899581503005598,-0.26556412489755543,0.030886938317965518,0.23772706288074086,0.04175737678222978,-0.8957497771836007,-0.7280442558867443,-0.9612851120266518,-0.16856737482348785,-1.0140741286630104,-0.7238198850286394,-0.9267856902021101,-0.041929597739398555,-0.7491412359599159,-0.4419809906682044,-0.6029358864886496,-0.5140678448731829,undefined,1490484778664
903d185fccf839df,-0.22461561777393785,-0.6690874879300457,0.7843485983019222,0.8220580685933947,-0.7978832872923991,-1.7742967189502399,1.8912925938937397,-0.8416103097166255,-0.2985276394199349,0.18649318492047612,0.1429571531352291,0.029174144375972384,-0.847879066399287,-0.6724942201803855,-0.9318114029442368,-0.17260863644400215,-1.0405505038534426,-0.7290508971539549,-0.9195160037746473,-0.0003075992942166976,-0.7394950369691772,-0.44491189669001296,-0.5969357556076593,-0.5123044409107449,undefined,1490484780169
903d185fccf839df,-0.32163668667067946,-0.614495034648772,0.777330606443595,0.8040289378229749,-0.8428420697137189,-1.783322520325523,1.8938882177687717,-0.8503438282569369,-0.24933974637515777,-0.12411446126747745,0.19766507951242618,0.046003464412145575,-0.9175091911764707,-0.6326833773380401,-0.8749692376187667,-0.14432011601233888,-1.038298598488385,-0.7060433125525233,-0.9035982588344607,-0.010270392582527193,-0.7227660645654983,-0.46034528687183573,-0.6020173116786597,-0.5258885645472212,undefined,1490484781675
903d185fccf839df,-0.33965485954748426,-0.6843498486532094,0.7932810038002558,0.8789268201670399,-0.9359070601027161,-1.8242006677508702,1.8988716979511853,-0.8868234196127528,-0.2845612384698345,0.11496909626246661,0.1397068269018885,0.028959684583959984,-0.9958430815508021,-0.6697167064156011,-0.8507586790403358,-0.22716503236471078,-1.0391377481064865,-0.7295638651156704,-0.9004077129584718,0.031120629127111228,-0.7249197396419594,-0.4722171496099242,-0.594952663698343,-0.5042932408398445,undefined,1490484783200
903d185fccf839df,-0.361831106824346,-0.6831758186569666,0.7569142604747167,0.8243682864680417,-0.92591964822835,-1.8246432231198124,1.9116630756161426,-0.8013457999386978,-0.28530250203055035,0.09447794574917437,0.13844094479695782,0.00875064283931528,-0.9436204879679144,-0.6780492088576306,-0.8360218134557776,-0.22918564904260716,-1.0376716137087265,-0.7320020485477363,-0.8977769122156506,0.03292224720393973,-0.7251419265527996,-0.47177482357246003,-0.5913101393995378,-0.5071532806455199,undefined,1490484788268
903d185fccf839df,-0.35351499252964175,-0.7060694328116931,0.8175256687752481,0.8867858353891578,-0.9888063965646725,-1.8304080902025857,1.9492956008917,-0.5843277261696677,-0.228059277069232,0.018312918535795197,0.151331466497926,-0.028670721489519487,-0.8783422459893049,-0.6826783660886683,-0.8286533659390309,-0.1887734568082871,-1.0299119240432995,-0.7304441452557444,-0.8939006788064596,-0.02422138348374721,-0.7322192766848579,-0.4741878456061555,-0.6098723135370046,-0.5077368403400236,undefined,1490484789180
903d185fccf839df,-0.37569123980650354,-0.7166357320058704,0.6835428900805858,0.8116682825754856,-0.9742829897616816,-1.8469317133019594,1.9980916539169356,-0.29052325326553363,-0.2766388608934619,-0.030970783403263362,0.17873526082842087,-0.03455352678288426,-0.9697317847593583,-0.7252667550727344,-0.8402323338589649,-0.19887654019776904,-1.0316392845490248,-0.7476507536147851,-0.8782767993970262,-0.07067849313940966,-0.7419785865825146,-0.47805764271444906,-0.6461446462365724,-0.5379216483964847,undefined,1490484790662
903d185fccf839df,-0.4851863938817772,-0.7242669562094407,0.847511795711614,0.9927561425789837,-0.9571573034744445,-1.875164422044189,1.9941311667581192,-0.35481527427655063,-0.2863277582057036,-0.024465953441600245,0.1557011274218374,-0.07594834386777825,-0.9914911987522282,-0.7150825962136771,-0.8602323573097409,-0.231206237455782,-0.993784445491403,-0.7446362726458131,-0.8671098892562006,-0.05150742909727542,-0.7335406302642896,-0.49159067290128294,-0.6145621783029993,-0.5256185585944227,undefined,1490484792168
903d185fccf839df,-0.5919094868552096,-0.716048717007749,1.0031864337243106,1.085775095764283,-0.9935583871440666,-1.8868199353576371,1.9589206889012964,-0.6026387734643158,-0.3516339533737829,-0.24961938061403272,0.10753952864904241,-0.0035279805580881,-0.847879066399287,-0.7410059349859732,-0.8370744509188083,-0.25747414120954887,-0.9854852125851066,-0.7447439315588489,-0.852486553912239,-0.12270984081397966,-0.7420355726013363,-0.4797295521076423,-0.6376282688489344,-0.51076047680307,undefined,1490484793710
903d185fccf839df,-0.6196298218303441,-0.691394028630666,0.9176932391165823,0.9769262323161705,-1.0830850961354097,-1.876016923237316,1.907087209209224,-0.9575694066478956,-0.36431497647356165,-0.4662348250270002,0.127586733365806,0.028891351056431005,-0.8130640040106952,-0.7872976173779331,-0.8486534188387421,-0.35244270109985604,-0.9939244156032992,-0.7896445023367545,-0.8494779250395219,-0.1750183611931606,-0.7721776958874932,-0.45667203511994303,-0.6460126164609603,-0.4953984591361707,undefined,1490484795239
903d185fccf839df,-0.5752772927712108,-0.6737836079150168,0.8277333334857884,0.8102715428749521,-1.1527501199183692,-1.8826762175056435,1.8695020245860992,-1.2289537234940084,-0.37246681112177304,-0.47925673630876836,0.1491761091698872,0.0549431168679287,-0.6041736296791445,-0.7872976238533205,-0.9139166249705868,-0.2978862627820651,-1.030004218961708,-0.8096566048777597,-0.8703634051393797,-0.18815323462035066,-0.7930161720723754,-0.4492413215760708,-0.6378945753129794,-0.4840217773491597,undefined,1490484796668
903d185fccf839df,-0.5420130081194425,-0.6379756638016197,0.6510047198981103,0.7075255575168368,-1.058687415886372,-1.8331449455474014,1.8668275107972447,-1.1688807829478616,-0.3752779086288652,-0.43090228883629134,0.19245925499791142,0.04046484267887682,-0.8217677696078431,-0.7910009755396996,-0.8981271440096994,-0.2594947578874453,-1.0281855341218842,-0.8163441935339657,-0.8867919163315363,-0.22182963498638936,-0.8066534643487264,-0.4442149533558047,-0.6302269219878073,-0.4844122860817723,undefined,1490484798156
903d185fccf839df,-0.38123536201018604,-0.652064023756533,0.7805205334327575,0.7587740214299858,-0.9540613044507675,-1.8149815395825695,1.8719004032499003,-1.0820699225675638,-0.33691119367538763,-0.16847227134930207,0.15638681446350639,0.010787682112713595,-0.9349167223707665,-0.8085918118699662,-0.8781271131966896,-0.2029176887593972,-1.0223251126501782,-0.8298523623037194,-0.9058162464999115,-0.23858314655327018,-0.8189442428767049,-0.4533918071205234,-0.6548554912150081,-0.5006417958134666,undefined,1490484799655
903d185fccf839df,-0.24401983845436812,-0.6191910961777584,0.7505338982224928,0.7701790344811917,-0.8176215358221558,-1.7731297693088437,1.8348569570927644,-1.254199757158383,-0.2833418980750539,0.11935906959670065,0.2143358524881845,-0.08368291460061318,-0.9871393159536542,-0.8234051409108357,-0.8749692228942991,-0.170588005633745,-1.0523594456540624,-0.8362486363425085,-0.9148351356465436,-0.18277918056556094,-0.8144367659054772,-0.4558898684160046,-0.6544410798638007,-0.4935445971774445,undefined,1490484801153
903d185fccf839df,-0.0375037189985821,-0.7236798827553347,1.087404369119832,1.2218956173200313,-0.7068342989723612,-1.783513517588933,1.850091425841775,-1.1383869767218615,-0.28069830120851824,0.5269267285940779,0.14214971337670387,-0.08759761018110059,-0.847879066399287,-0.8363668329608392,-0.9191798196479737,-0.08572247260347672,-0.9977936058203657,-0.8576413201401053,-0.9262119508232487,-0.0946846751366421,-0.8113654189990315,-0.45193917097452435,-0.6083115155006368,-0.47978036865777784,undefined,1490484802658
903d185fccf839df,-0.07492607805040741,-0.6855238786494522,0.9585259310543388,0.9134736640102405,-0.6286115699880246,-1.7968856794308146,1.885946201880865,-0.8876492253438806,-0.38374844013872494,0.555372409568163,0.10284317515235876,-0.03524809288279235,-0.6955631684491979,-0.8271084796464404,-0.8833902931496088,-0.004898144664279689,-0.9681996596742208,-0.8318979032056404,-0.8973571021071894,0.05118479772790485,-0.7618835725166583,-0.45328341215787166,-0.5502515390586522,-0.4694950848920349,undefined,1490484804180
903d185fccf839df,-0.008397439736051296,-0.6884589828680514,1.332400520746371,1.3438827480072144,-0.5970139056290529,-1.8352202991080326,1.943478467249941,-0.5364949748105229,-0.4065082134523826,0.6234256153449365,0.014883266866644238,-0.0024613127776944065,-0.8739903631907309,-0.8345151765438115,-0.909706089842932,0.10219401636688039,-0.9653254987831492,-0.8078580481314672,-0.8723644940349562,0.14705551895532396,-0.7275338631952125,-0.45116272906847593,-0.5178330729153588,-0.4775595693744775,undefined,1490484805671
903d185fccf839df,-0.07492614706122687,-0.6773056686757527,0.7837109686958188,0.9084325078666593,-0.5696745220885919,-1.8747288549487635,1.9821681881831894,-0.31802940532829194,-0.38084479400326676,0.32131927282176254,0.03549519807994741,0.061316305128285765,-0.847879066399287,-0.8002593094279367,-0.9223377099503641,0.031472743552443755,-0.9948801883876974,-0.7968640582950813,-0.8599451545881618,0.11536552183476526,-0.7249240871825974,-0.45475550353536714,-0.5173390929874379,-0.48883439098265374,undefined,1490484807168
903d185fccf839df,-0.18303525333287501,-0.6831758332709628,0.767760571339158,0.8482604277851302,-0.7341633915924232,-1.9376579109896046,1.9733583413423665,-0.492401650754153,-0.34460048626049905,-0.10814096083790666,0.008429457737830411,-0.0749659499319309,-0.7303782308377896,-0.7798909334313366,-0.92654820826685,0.03753465011557598,-0.946535480591617,-0.7839321860933172,-0.8884641560946388,0.16804360439308927,-0.7158266991197031,-0.4554455427893609,-0.532243209035008,-0.4981733704451774,undefined,1490484808737
903d185fccf839df,-0.21075551929719008,-0.6837628628830803,0.8921728066554845,0.9479535392255329,-0.8079426977917078,-1.961711965168461,1.9913409573296914,-0.4158359103227227,-0.28925545705819344,0.0007185236634586745,0.1182884365949487,-0.15452816985373827,-0.20815229500891266,-0.7484126059817953,-0.932864055131735,0.15270929199068237,-0.8747956558532567,-0.7502219264445531,-0.9043469164237894,0.31690037634733115,-0.6774560024906354,-0.46354501187060654,-0.46558114566279146,-0.5334158661174379,undefined,1490484810211
903d185fccf839df,-0.21907153007566513,-0.6937421032371478,0.7613802090869342,0.7725349706140406,-0.9259093558835801,-1.9842799635094952,1.9189029428831912,-0.9550661497928506,-0.26460574123557395,-0.10424736490918722,0.11679108738238289,-0.2147160623496322,-0.12111463903743315,-0.7780393093912452,-0.9139166765062233,0.3163785362822513,-0.8210733946428194,-0.7541990149410753,-0.9171160966101636,0.43229632688528463,-0.656362935107202,-0.4589048225843589,-0.5197482719215176,-0.5224265257344776,undefined,1490484811898
903d185fccf839df,-0.35628698462066355,-0.7254409715916874,0.9119510147443606,0.8907587708086886,-0.926135643751086,-1.9962941792801392,1.9287147464149452,-0.9025087391624265,-0.23525588836392955,-0.027821058921460314,0.1269022843665911,-0.31702575590556636,-0.4605614973262032,-0.7974818150893141,-0.9276008604543482,0.23757485328567218,-0.8244943948276156,-0.7730268576511248,-0.9335725962141855,0.3424156000614209,-0.6865795318373764,-0.4618464922882661,-0.5411026206249802,-0.5361223259229466,undefined,1490484813175
903d185fccf839df,-0.5239948007372279,-0.7318981511850188,0.5910311953406315,0.6029018718484616,-0.9308670637246087,-2.0269586139144056,1.9033607939378254,-1.1062270055708954,-0.26931601570363056,0.22997876230028544,0.14593007049712703,-0.26316063958643426,0.8624108734402852,-0.7734100938817221,-0.9602324672013874,0.2395954558312078,-0.7996392678722115,-0.815888220653497,-0.9867203716945961,0.21944361518509511,-0.7431398628055521,-0.4605630311018623,-0.5395670665555824,-0.5140813605442939,undefined,1490484814671
903d185fccf839df,-0.2786702054151717,-0.8269946612576625,0.6490900521211543,0.6204123702317117,-0.720565702320144,-2.056081091348804,1.976487809559149,-0.6024382456238323,-0.2669930442925891,0.21096318920674398,0.11838100216121093,-0.3526311599280431,0.7492619206773619,-0.8169243143119957,-1.047601015883472,0.31233718986757236,-0.7878999878635882,-0.8546964996192882,-1.0267001487747789,0.17138506434900927,-0.7797884288473715,-0.4668757630893737,-0.5181737945164558,-0.49320082737050164,undefined,1490484816162
903d185fccf839df,-0.4089556624799108,-0.8375609312238474,0.7148052927769559,0.6838043632732692,-0.8279483793537433,-2.055810899833294,2.014691001662557,-0.38024010702033123,-0.2816669562250967,-0.023439334764001805,0.13644044503524339,-0.2645404056478036,-0.1646334670231729,-0.8919168621918108,-1.043390488118051,0.18503889032216997,-0.8433390709056942,-0.8858039196547207,-1.0329203137726033,0.09135934320311036,-0.812385181787483,-0.4665483545012056,-0.518039422939559,-0.4978721933694347,undefined,1490484817663
903d185fccf839df,-0.6321040105251053,-0.8939144368064834,0.9559736336712795,1.0250806792803868,-0.9981766650243156,-2.050027399306113,1.9791228652970698,-0.6475179118634807,-0.24929151762885107,-0.13934270168496607,0.23478793388711106,-0.274148722861843,0.10953514928698754,-0.8882135299315934,-1.0328641576611477,-0.41104035864107896,-1.0187768332691272,-0.905664030877532,-1.0422330686090322,-0.3605696322134153,-0.9175276514971479,-0.471662835191407,-0.6076204439233871,-0.5245268017218996,undefined,1490484819172
903d185fccf839df,-0.7651613906700467,-0.7941217994418706,0.8290093551088433,0.8268743509885254,-1.193131765763207,-1.9925720564660285,1.9108452125003186,-1.0668032045868434,-0.2946468333075758,-0.24160623976891152,0.23226378868391834,-0.2650277621264065,0.3662962344028521,-0.7965559901184939,-1.0654957791326545,0.1628122905859997,-0.8941095278775568,-0.8800409412349574,-1.053371991598107,0.15544767535837367,-0.7965978251133737,-0.46626506822921115,-0.46242390900509034,-0.5402693270563006,undefined,1490484820659
903d185fccf839df,-0.6210158006231501,-0.7618359453172019,0.6886469765728054,0.6953146974502082,-1.1363650042140048,-1.9947312608390817,1.9608509709287436,-0.7116815973332764,-0.2964099068514146,-0.20690917402784964,0.24415900083981237,-0.24224034524334712,0.0007380793226381577,-0.806740142502164,-1.0507589135480964,0.21130679407593686,-0.9021285941765717,-0.8777167511489677,-1.0399451111220375,0.1825181438126387,-0.7857541320847238,-0.47182070131654913,-0.4446165087542632,-0.5307694619117709,undefined,1490484822158
903d185fccf839df,-0.6182437740267186,-0.7641840053096874,0.5412663520414909,0.5181484703406471,-1.1151147554328675,-2.0148442406077756,1.9993013645577342,-0.46189216831304847,-0.2914250153867159,-0.19068508878383147,0.17822912451794382,-0.19107648137085295,0.03555314171122996,-0.7974818215647014,-1.0065483278377725,0.26586327479081007,-0.8582199443688149,-0.8678500249881778,-1.0256646195355015,0.2338565616575227,-0.7677208355471007,-0.4665825955001181,-0.43242465946557873,-0.5531193903454319,undefined,1490484823722
903d185fccf839df,-0.7000186966430869,-0.7888386352307857,0.7243760902922411,0.7337811199668047,-1.2528402396741949,-2.0268002248167405,1.923102737443351,-1.0043187879463442,-0.3171742544147819,-0.2930734192162882,0.13344264401976139,-0.17912243701128042,-0.042780748663101595,-0.8011851538249187,-0.9981272539013458,0.2012038096129803,-0.903011012848599,-0.872625064576298,-1.0347114960296302,0.13967967084273752,-0.7905721375716768,-0.46643020821338804,-0.4269240303636034,-0.5436757838198382,undefined,1490484825169
903d185fccf839df,-0.6487361355982846,-0.8152543320672424,0.877498685058828,0.9188139333913872,-1.206019747255216,-2.05054448847126,1.970983622005803,-0.7159940596245931,-0.312555492189921,-0.3289778287128918,0.12083020170524535,-0.09594279606052306,-0.5345435049019608,-0.7956301392461246,-0.992864096035128,0.2618220131702958,-0.8536169217848387,-0.8564823907052292,-1.0134271974590023,0.21406956183034553,-0.7627883026554907,-0.4600251051917304,-0.4534191192265249,-0.5451119181045999,undefined,1490484826694
903d185fccf839df,-0.6778424493662252,-0.8205374743573329,0.9176932391165823,0.9642273783708241,-1.25479452155936,-2.0204553767315505,1.982228675234136,-0.6179812281620409,-0.3389185616931361,-0.4508298508106012,0.07157294779982774,-0.12346803300467783,-0.7651932932263815,-0.8502543111293395,-1.0044430639550619,-0.130175869928868,-0.9601297506444842,-0.9024025647120385,-1.0065633261113234,-0.04411617376181701,-0.8320942255615289,-0.4687869138334657,-0.4841070761065978,-0.5173209612968177,undefined,1490484828156
903d185fccf839df,-0.7166508217162663,-0.8446051331222983,0.8647384688282791,0.8774770979868632,-1.154385549024339,-2.001551272422718,1.9981074421654137,-0.47797725528483825,-0.3573209564300277,-0.3669744485032304,0.0880930255324594,-0.04827062460566773,-0.5824142156862745,-0.8622901587823609,-0.9865482933436457,-0.43326704317141385,-1.0221996438906977,-0.9030421917632317,-0.9963409857814045,-0.38796346344486704,-0.9064815235174227,-0.47608998869865277,-0.6314113446851868,-0.5097538348178433,undefined,1490484829668
903d185fccf839df,-0.5614172287998728,-0.8557584327006009,0.7358600307627857,0.7435991504809519,-1.139821002676039,-1.999026377811844,2.0043953132459698,-0.4353470015341545,-0.3497242099313802,-0.26483518170061493,0.059341813755052326,-0.05927388860764939,-0.8130640040106952,-0.8354410015146317,-0.9970746311627828,-0.39487545348262937,-1.028489492648497,-0.8814531859752592,-0.987504014017302,-0.33865764029119433,-0.8814511525338087,-0.4759334573206271,-0.6583113525848869,-0.532593941723961,undefined,1490484831228
903d185fccf839df,-0.6224019174375951,-0.8404960281354487,0.8060412200308047,0.7960325722628335,-1.0993673543032418,-1.9993920679826163,1.9345608147036961,-0.9046467939678682,-0.36118339790675186,-0.24353416181451898,0.08175449843766985,-0.023954645823713386,-0.9479723707664884,-0.8354410015146317,-0.9707588344694597,-0.37062820880384123,-1.0250081982947488,-0.8804272491438152,-0.9721040337059298,-0.35442564863012643,-0.8768842040964668,-0.4767809948398724,-0.6671903405064561,-0.5315864893305382,undefined,1490484832662
903d185fccf839df,-0.5946816169678703,-0.8340388193141248,0.7326701037736232,0.7546405192118069,-1.104973054177902,-2.0167542165915515,1.9192132670245539,-1.0203451913395445,-0.32981957298118053,-0.27164243451502185,0.09105846846105142,0.005073741792900113,-1.0045468471479502,-0.8576610080267105,-0.9444429936027338,-0.4009372893839578,-1.0210062981751924,-0.8863612178512214,-0.9643515674258493,-0.3184240834459547,-0.8724116961210024,-0.46518759761467776,-0.6555803246156143,-0.5486277877968169,undefined,1490484834157
903d185fccf839df,-0.4671681519941529,-0.8134933089938725,0.9668201986726703,0.915239129156497,-1.0134920654159445,-2.032255303411077,1.9052253188321808,-1.0961656464409257,-0.3367947823551634,-0.42356855465204335,0.08608362772966015,0.015082358189417444,-0.9436204879679144,-0.8372926644070467,-0.9318114176687043,-0.3544633460424739,-1.0381487794347677,-0.8812821973984462,-0.9390161146174608,-0.2633438426441207,-0.8543475013682601,-0.45574416576029453,-0.6688894927009856,-0.5201518768709332,undefined,1490484835679
903d185fccf839df,-0.4865723726745832,-0.6661523983254426,1.0204128527040262,1.0006539421876282,-1.0160840621659242,-1.969636035962869,1.9461582490258966,-0.7562027768490821,-0.3845117658081151,-0.2984661845650395,0.05269927657174673,0.050379704265481336,-0.8348234180035651,-0.8104434618116068,-0.9370745755349222,-0.25545351039929176,-0.9878453577047638,-0.8698955643841255,-0.9164723902847771,-0.1860282486910445,-0.827791609294364,-0.44562057238703806,-0.659864478783114,-0.5076072669000072,undefined,1490484837230
903d185fccf839df,-0.2246156522793476,-0.6544120983630148,0.9400234904515682,0.928663527212863,-0.8396843582722705,-1.954002181981056,1.962846996471499,-0.5887451943037247,-0.3568596677243103,-0.17480594085230286,0.053757185740653225,0.08903591835217835,-0.6302849264705882,-0.8206276336214386,-0.9497061588311855,-0.28172144241778013,-0.9934645720385564,-0.8740689746384834,-0.9225876030582806,-0.1919412519847401,-0.8349547145349557,-0.4342401580260769,-0.6578907628540335,-0.49704897430059286,undefined,1490484838664
903d185fccf839df,-0.1941232907077816,-0.6814148028905948,0.9457659689607393,0.9254819471578314,-0.6387326924489855,-1.878103922710895,1.9831675114043317,-0.33259507002224886,-0.45350759068685065,-0.011744947633238358,0.04541822874943817,0.005745859086409025,-0.8130640040106952,-0.8252568232294126,-0.911811372131227,-0.2150413888267755,-0.9795150886882844,-0.853100598382862,-0.9013872651966237,-0.10808131904008776,-0.8066835124800384,-0.42921911806401003,-0.6489430044068344,-0.4654430863227085,undefined,1490484840187
903d185fccf839df,-0.07769813915224864,-0.705482447041564,0.8698420470465997,0.8790924968467699,-0.5959853340447162,-1.88874155820481,2.0137127095364717,-0.13803790688756995,-0.4391858606459873,-0.005598927517706287,0.08594301270420637,0.030444933395621526,-0.8391753008021391,-0.8132209691010038,-0.9633903869527131,-0.1968559517845942,-0.9810779019722701,-0.8543671871847803,-0.9070196976526129,-0.0655508139694392,-0.7993395264653305,-0.43284796580794155,-0.6398471918772456,-0.4636223729901509,undefined,1490484841669
903d185fccf839df,-0.12205049568433325,-0.657934173737747,1.01084256346264,1.0580347212465322,-0.7305428253546529,-1.8856692920257383,1.9396705317374958,-0.6514141952367154,-0.44514841036775915,0.14043748804329306,0.08628326651507892,0.01530915478253894,-0.9088054255793226,-0.8197018086506184,-0.9402324805617803,-0.16856743135293092,-0.9901237067528992,-0.844848772045917,-0.9008135263377124,-0.08886406006548382,-0.7977456601077599,-0.4277233325935358,-0.6462448315895336,-0.4739101670477984,undefined,1490484843226
903d185fccf839df,-0.2620380113311729,-0.6009936896919801,1.193314163833388,1.1240443797300104,-0.7998478505234696,-1.8778127686082544,1.91716200880017,-0.8228454461399629,-0.39819239499199,0.03967767232652828,0.09647405033695948,-0.058836119332262175,-0.8870460115864528,-0.8197018086506184,-0.8739165780690347,-0.09986673281930836,-0.9633086540830962,-0.8584202700918814,-0.8978818621521905,-0.07936321871355717,-0.7979910061991109,-0.42511683864518307,-0.6447973164960583,-0.4691919640529963,undefined,1490484844659
903d185fccf839df,-0.2440198039489584,-0.6685004144759396,1.0503994879142908,1.077522214966766,-0.9337367736164502,-1.8704290799732435,1.9319967379950105,-0.7532336380633355,-0.3425036573891133,-0.005369476500574255,0.06771185714590848,-0.02247642497637588,-0.7129706996434938,-0.8252568167540253,-0.8476007519267764,-0.16654678641031298,-0.9735248304387452,-0.8474389457718936,-0.8928231677415434,-0.16428564419206884,-0.8055756098931267,-0.4284711921938272,-0.6604740888010086,-0.49171686079461585,undefined,1490484846171
903d185fccf839df,-0.39093738608687684,-0.7048954320434426,0.7696744767052656,0.7979462418993499,-0.85934032502871,-1.8698630748183875,1.909506635728431,-0.8848897538116324,-0.3009880880438333,-0.18749457695206684,0.029706626269650135,-0.08976956606101061,-0.5737104500891266,-0.7845201165639233,-0.7907585792390724,-0.19887648366832597,-0.9602251943580558,-0.8387754788710515,-0.8890308959711165,-0.11825969288016334,-0.7919159301384566,-0.4415834820622694,-0.6562227677242757,-0.48365431657202523,undefined,1490484847665
903d185fccf839df,-0.5226087874390122,-0.6191911838617354,0.7735025415744303,0.7784370417842743,-0.9688315754746329,-1.8030558342244762,1.8390620238301132,-1.2659787898481292,-0.32933564565264334,-0.4078495613813189,-0.04702467551498627,-0.0706866484069439,-0.9218610739750446,-0.8030368102419465,-0.7707585778749978,-0.19483530684197625,-0.9882587197398944,-0.8154132502652591,-0.8776470849316793,-0.17828283384905444,-0.7858622821727144,-0.442970589423123,-0.7014968357604728,-0.4967948149040526,undefined,1490484849175
903d185fccf839df,-0.5239948352426377,-0.6872849528718087,0.680990846834476,0.6607689889260925,-0.9244590749657718,-1.8013764533957752,1.8715059400630059,-1.0438840807787264,-0.35605957458132875,-0.38438986914501677,-0.07065697756817606,-0.09707173970351463,-0.852230949197861,-0.7521159447174,-0.8381270662951374,-0.21706200550467192,-0.9654475348236333,-0.7727798748409062,-0.8870018215081081,-0.2414318581530947,-0.7800520064339586,-0.43537822106271834,-0.7005654338919686,-0.5021063407108067,undefined,1490484850654
903d185fccf839df,-0.4117275510547034,-0.5822092097520957,0.8519782525977302,0.8692360192863912,-0.8946511274309367,-1.7597599356891358,1.8691075519715081,-0.9704737917323218,-0.3595372939209069,-0.1716026217638555,-0.10670121390128598,-0.1447904662882917,-0.2516711229946524,-0.685455912230389,-0.8170744201057983,-0.1928147184288014,-0.9165898741238239,-0.718392554639124,-0.8714339179681438,-0.11427149762315766,-0.7259800135138907,-0.3849745387696282,-0.6833452935802073,-0.5254019525148712,undefined,1490484852221
903d185fccf839df,-0.5004325401621504,-0.49063469467720516,0.9298150633301796,0.8749309223774125,-0.9649230055967117,-1.749911913357858,1.9178352332492545,-0.6510357623857771,-0.3235575419951033,-0.22286410605779367,-0.08382699636304712,-0.14343245080885328,-0.1994485294117647,-0.6363867031228702,-0.82233758533425,-0.20089714274330467,-0.8996282744260355,-0.694156379202355,-0.8479526199564361,-0.18331812664082417,-0.7142617910546359,-0.39721607251294333,-0.6816744164362792,-0.5259386246663875,undefined,1490484853693
903d185fccf839df,-0.5101346332496607,-0.4747852897279277,0.8015750172816378,0.8015380681078041,-0.977039559488752,-1.6609699123294062,1.9622474012817874,-0.23129344701142626,-0.333542118623612,-0.37896744891254736,-0.052823809664818054,-0.08193563676332648,-0.8696384803921569,-0.6058341941687618,-0.9160219293455832,-0.2655565513916914,-0.9210626216494161,-0.7045550719178161,-0.9000228867514674,-0.20102633665584796,-0.7384779249693126,-0.3701642040608781,-0.6952873741089055,-0.5346056556808813,undefined,1490484855151
903d185fccf839df,-0.3715331309010368,-0.48300349970162715,0.7045973739294662,0.6320585916433118,-0.8972739772889943,-1.64767228552638,1.8997369111471383,-0.6176956345921517,-0.3055823142244231,-0.4200197864514153,-0.0038604321421144556,0.08233087271403805,-0.7913045900178254,-0.6724942201803855,-0.9244429701519578,-0.392854836804733,-0.9464396126628686,-0.7344718963715259,-0.93349563027911,-0.22153706670380388,-0.7657977253690749,-0.3989589416507717,-0.6805373031499566,-0.5561394807412434,undefined,1490484856650
903d185fccf839df,-0.23986176405431114,-0.4812425131632477,0.8264573118627335,0.7925995769266223,-0.830087804545799,-1.6809221777827328,1.9143112892753165,-0.5512024573096043,-0.25875785495959513,-0.37131239527106924,0.0469959040645768,0.032445324625851195,-0.6955631684491979,-0.6141667095615659,-0.8528639466041632,-0.3706281664067589,-0.9064397331068672,-0.7057773282315263,-0.901723111305135,-0.1529523901879384,-0.7299501800465531,-0.40954308099055364,-0.654048986925555,-0.555588104573163,undefined,1490484858175
903d185fccf839df,-0.2703540566150577,-0.5012010230993749,0.80986903076302,0.8737530233941371,-0.7941290043064291,-1.7485143701496977,1.852915848379514,-1.0356443986660375,-0.22661529291190266,-0.47709417189822895,0.060316861716816814,0.051503221276709865,-0.8130640040106952,-0.6280542006808406,-0.8823376704110458,-0.4514524943459559,-0.9754401779956291,-0.7202861016593746,-0.9193340845692334,-0.24198620173144234,-0.758937748922067,-0.45692336263135924,-0.6873056129568198,-0.5612616739782218,undefined,1490484859748
903d185fccf839df,-0.34797093933677875,-0.5428791171939856,1.1607754853770136,1.2495590916646768,-0.7866513022933932,-1.8320851451313263,1.8644238798591684,-1.0786263648814334,-0.25116387851995325,-0.5152134380243719,0.14465231473586151,0.030788222180023004,-0.8913978943850268,-0.6326833773380401,-0.9486535213681548,-0.40295794845893645,-0.9665398238351676,-0.7073035674418479,-0.9455161514998167,-0.11804411430735755,-0.7461953107720952,-0.45795730883525804,-0.6724353880338159,-0.5585081635970289,undefined,1490484861126
903d185fccf839df,-0.4200436998548173,-0.5528584013900416,1.1697076367383978,1.2495590916646768,-0.7638684876483041,-1.8896546214197403,1.8927258530180144,-0.9490828857426832,-0.2647776175830208,-0.6620971742706442,0.049458867316487264,0.05267225863817597,-0.45185773172905525,-0.5891691763339282,-0.9065482142650091,-0.3524427576292991,-0.9574505835285442,-0.6781783594363021,-0.9191941495261756,-0.16893597734199778,-0.7348950717596805,-0.464314149925233,-0.6431213461845949,-0.5478478302194417,undefined,1490484862649
903d185fccf839df,-0.4740983565068706,-0.6250613192289531,1.3566451857213633,1.3412563690893593,-0.7738558998167466,-1.9414336083565766,1.949924135966012,-0.6392531348497741,-0.2200400345477197,-0.4967698599562165,0.06411185802521323,0.11014575962611489,-0.42574643493761144,-0.6012050045607878,-0.9054955915264461,-0.3160717987507718,-0.9149603712460955,-0.6218278278904483,-0.9069497301677862,-0.16308456715697187,-0.7070698006239986,-0.4706922660911626,-0.6267555029537948,-0.5106930107743685,undefined,1490484864174
903d185fccf839df,-0.43944795504065737,-0.6602822191162363,1.3126225667944444,1.3196032976099188,-0.7985930035328725,-1.9487497487865308,1.9297430032355574,-0.7910170734928822,-0.2434626207275229,-0.44255951100264185,0.05808482967064353,0.12302546217807425,-0.8913978943850268,-0.6058342071195364,-0.9286535273663139,-0.2756596347811733,-0.883181816737524,-0.6151465724104597,-0.9250714708950327,-0.16097498065586072,-0.7133159182864448,-0.4459058205108218,-0.6113163002412378,-0.5028647286625438,undefined,1490484865624
903d185fccf839df,-0.4948885559801069,-0.6696744883141709,1.1882103314781178,1.2521124507637797,-0.8771962981522898,-1.940893224541821,1.9515020180441995,-0.6527385314647272,-0.2135267845455895,-0.46653384995551794,0.024464840732639506,-0.04122235044514711,-0.9044535427807487,-0.6586066966841745,-0.9918114806587988,-0.3160717704860503,-0.9480241374792936,-0.6046718839888401,-0.9520301836004789,-0.24625157195472697,-0.737826487497049,-0.41004243208112234,-0.615158124189198,-0.5008599522044564,undefined,1490484867128
903d185fccf839df,-0.48934443377642445,-0.6526510241406583,1.1996942719486625,1.276039118810706,-0.900976824855966,-1.9496814434108745,1.9762853162637308,-0.4918525358467476,-0.26211016964954964,-0.42375988787226787,-0.0012463472753401145,0.023409335679127577,-0.8565828319964349,-0.6613842104489588,-0.931811395582003,-0.303948126948115,-0.9575316765777275,-0.6056471582619283,-0.9364832697652146,-0.2864877090712106,-0.7399067968583183,-0.39656881279235284,-0.6036991081572448,-0.4808461662670561,undefined,1490484868738
903d185fccf839df,-0.47687031409248265,-0.645606873391194,1.3757852559302373,1.4567494189680712,-0.8508031985313136,-1.9319209943153588,1.95266440793548,-0.6162487503965932,-0.22209852490015425,-0.36387695479215276,0.020067552768679074,-0.09700547292852353,-0.8130640040106952,-0.6799008911762076,-0.9191798196479737,-0.38275183820941566,-0.9784815885880116,-0.6290853822416794,-0.9375467850735231,-0.33958154735452933,-0.7611215476032339,-0.38950724153062044,-0.599980869882593,-0.4551447331387785,undefined,1490484870164
903d185fccf839df,-0.4339038673423846,-0.69374213246514,1.383441639805516,1.4575711120718238,-0.892089988016136,-1.9587887684310514,1.996653172896518,-0.3490338355163337,-0.2259696116592622,-0.342920332014114,-0.0445664617142614,-0.022138289747092987,-0.7564895276292335,-0.6650875362337889,-0.884442945337107,-0.2615153463006201,-0.956660680200291,-0.6210552086842931,-0.9309907730557452,-0.2283585754517454,-0.738980582178714,-0.38061384470483955,-0.5922068642131422,-0.4429491839273004,undefined,1490484871642
903d185fccf839df,-0.2481778783490154,-0.5945364954846525,1.494455266874342,1.4281288678917952,-0.9209002236824336,-1.9367611537625227,1.9578714156509334,-0.5950847854979425,-0.1774893712341966,-0.21474022201100962,-0.05755623443101874,-0.022355757372492967,-0.6172292780748664,-0.6502742071929194,-0.8907587112174203,-0.303948126948115,-0.96944927389179,-0.6430748529425718,-0.9450823503020656,-0.2682713466677863,-0.7617885642070689,-0.3800276914930358,-0.5790110963150763,-0.4445179680555669,undefined,1490484873131
903d185fccf839df,-0.23570368965425414,-0.7172227177759994,1.2137305098022662,1.2820336618463097,-0.8565323327699981,-1.9436254236153454,1.9035711750723519,-0.9570764999192041,-0.16722118534459104,-0.41690727650143933,-0.06849986673768403,0.008093491348294252,-0.7042669340463459,-0.643793367643305,-0.8918113560426847,-0.27161838729301974,-0.9718461707765793,-0.6275528076183274,-0.9345661434687809,-0.18131632499028494,-0.7359913932579972,-0.37650747171851395,-0.5710518115993789,-0.4401766390582499,undefined,1490484874650
903d185fccf839df,-0.22877376118481432,-0.6567601437415042,1.258391520746137,1.352852753217421,-0.7516387964322323,-1.9362859899419755,1.9085309817859835,-0.8870078766265762,-0.22279722604686591,-0.1586757283614084,-0.10302610665493023,0.02774930969049952,-0.9392686051693405,-0.6197216982388111,-0.894969253707309,-0.22918562077788562,-0.9597516163398079,-0.6194466404144223,-0.9482029276594446,-0.1164426745000896,-0.7220198834342011,-0.3811094232020091,-0.5556794916503228,-0.40155260339863635,undefined,1490484876128
903d185fccf839df,-0.20521139709350758,-0.673196563688903,1.324106507264989,1.3618798177770217,-0.6848126179500459,-1.9077178710568083,1.8989795293208906,-0.9122821047973761,-0.22987651253147942,-0.061837642586120276,-0.052948098330534,-0.08562155730789875,-0.8565828319964349,-0.6317575394164453,-0.9160219146211156,-0.18473222345249432,-0.9256877773841946,-0.6176924139361348,-0.9599925541885086,-0.02978022154942949,-0.708955437611885,-0.4017046448642719,-0.5678640371144792,-0.4195880006738067,undefined,1490484877635
