UUID,iqrAccX,iqrAccY,iqrAccZ,iqrAccXYZ,meanAccX,meanAccY,meanAccZ,meanAccXYZ, covarianceAccXY, covarianceAccXZ, covarianceAccYZ,pressureDerivative, pressureIQR, iqrGyroX, iqrGyroY, iqrGyroZ, iqrGyroMagnitude, meanGyroX, meanGyroY, meanGyroZ, meanGyroMagnitude, covarianceGyroXY, covarianceGyroXZ, covarianceGyroYZ, class, timestamp 
903d185fccf839df,-1.1802727530451718,-0.9112314084790567,-0.7535779241724435,-0.8039955620532527,-1.8088181638838836,-1.7048056164330048,1.9518583608654914,-0.6137463737931005,-0.29149623068026004,-0.6588233443112502,0.08129012284473909,-1.3032108319934317,1.4738504066399287,-0.8409959966672642,-1.1254958421227488,-0.8676976998518922,-1.0580497028242568,-0.8991819748344716,-1.1221589110420656,-0.9181123398479949,-1.0465424515076758,-0.43262668117098424,-0.6749859072788793,-0.45382207301924055,undefined,1488206073156
903d185fccf839df,-0.960589429619164,-0.7952958294381133,-0.6983897983726074,-0.7555323835595781,-1.4728039606569923,-1.7693747574396084,1.9489295365002273,-0.5993958233887614,-0.41025524595796503,-0.4900769749141255,0.04258532612069482,-0.6637007972702988,1.4999617034313726,-0.8085918118699662,-0.9991799060888441,-0.6838224018402455,-0.9043631503909315,-0.8865792924701568,-0.9939596356442896,-0.6283552884270842,-0.9431448550906779,-0.4093376207402316,-0.6401783575071536,-0.44812483133420894,undefined,1488206074584
903d185fccf839df,-0.8476292164192938,-0.7856100235131257,-0.6278894130961127,-0.6766483480078297,-1.4507075962247267,-1.8268209576311965,1.9560929396247988,-0.6384523458227577,-0.3796303290294584,-0.5464900167375648,0.04720522202551278,-0.28532793218531427,0.26837887143493766,-0.9132110243069075,-0.9854956853295502,-0.6615957173099106,-1.0212941059835488,-0.9334192823498608,-0.9921117181497459,-0.6560172243606759,-0.9714693055053144,-0.42842569321836615,-0.6401304809115625,-0.4562520465844017,undefined,1488206076074
903d185fccf839df,-0.8829726072819101,-0.9285483509236376,-0.5950317927682119,-0.6662696539498638,-1.4447507746618484,-1.876988216663001,1.9760223317272794,-0.5771391331768817,-0.3309726061197447,-0.5756955739497955,0.04925354762046995,-0.21370357560495662,0.1835171568627451,-0.9539477244970095,-1.0823379049188062,-0.710090298527832,-1.0904910614397834,-0.982181370084132,-1.066876835650383,-0.7499303213237477,-1.037467395789448,-0.4241377744856238,-0.6391124228887783,-0.45429864890961036,undefined,1488206077588
903d185fccf839df,-1.0451363184474969,-0.977270624995705,-0.72008242010149,-0.7559033364259418,-1.6237527596801757,-1.9134943821430233,1.9832595529542765,-0.6293817798126314,-0.2966940954682646,-0.6679927358103257,0.0729303524456301,-0.04272989553912376,0.0007380793226381577,-0.9585768946788217,-1.0939168691576233,-0.7606054681589283,-1.1011629828998695,-1.0120650121688244,-1.0860733691591105,-0.7736314754875145,-1.0634540361608145,-0.42600968393255845,-0.6405717428582332,-0.45990349093794913,undefined,1488206079080
903d185fccf839df,-0.9384131737159499,-1.0042733733652736,-0.8228020336889339,-0.890136836779923,-1.568065996966181,-1.926950397787301,1.9916828223522693,-0.5817680317594904,-0.30442794342868446,-0.6900412369478522,0.08024548675032096,-0.07992823577418491,0.4663895387700535,-0.9724643987488709,-1.0823378975565725,-0.7606055246883713,-1.1372711605299732,-1.0318416003736894,-1.086159047127651,-0.8039370694578161,-1.077455839364685,-0.435330783459806,-0.6440318880310968,-0.4696646900202117,undefined,1488206080607
903d185fccf839df,-1.071470605619006,-1.0036863583671523,-0.9216938365441626,-0.972571075219443,-1.5235289283775046,-1.9804343887974614,1.9898366971782244,-0.6323178253300934,-0.29453616583861136,-0.6936253098229639,0.08332583819692921,-0.21687224817822337,-0.7260263480392157,-1.0465311022317039,-1.128653739787373,-0.8333473929821632,-1.1530940529966653,-1.078743381270601,-1.1400344911961524,-0.9571823988758172,-1.1476953330343802,-0.43714511370413106,-0.6546490190716392,-0.48281092549250554,undefined,1488206082083
903d185fccf839df,-1.0894888130012204,-0.9784446549919479,-0.8980875635861219,-0.9284828418824967,-1.3618480561076816,-2.0094776733220767,2.005786475611912,-0.5266584634527941,-0.28049315703786915,-0.7026696809850443,0.08080011169863287,0.08637491187765634,-0.6999150512477719,-1.0696769579973051,-1.2202328015104111,-0.9081098638214906,-1.1915280378501876,-1.1066589971057414,-1.1937979861927541,-1.0365151895593017,-1.1928475817876714,-0.4643240421995928,-0.6679369397131969,-0.5041499683106809,undefined,1488206083598
903d185fccf839df,-1.006327911592046,-0.912698931360364,-0.7666570822745188,-0.8211235996256886,-1.3279772540975716,-2.0105817327412416,1.9926453388001384,-0.596972925064516,-0.2786901724833298,-0.7034317779892163,0.08465522577407604,-0.03390677590126467,-0.7738970588235294,-1.0372727618680795,-1.1791801189863869,-0.8879037818366914,-1.1597780906123836,-1.0773944646881033,-1.1688193707696617,-0.998650412381893,-1.1629812081851019,-0.4622416682330854,-0.6519111595147782,-0.4898822005911765,undefined,1488206085079
903d185fccf839df,-0.7208089306217329,-0.7776853648804756,-0.1477863409559476,-0.20503102909098073,-1.1948597650062271,-1.9766027908698478,1.992313983563719,-0.5402159886987167,-0.2351211251364156,-0.7342436941922923,0.09245732075362248,-0.1183685372202085,-0.41704266934046347,-0.9770935689306831,-1.0718115634185523,-0.8737595428194009,-1.069794393349625,-1.02206986855077,-1.1287906156402014,-0.964619847299409,-1.1168805876104588,-0.45687151035795576,-0.6252815127044024,-0.4747389084514698,undefined,1488206086594
903d185fccf839df,-0.5697333085891673,-0.7407033761568396,0.4474786356784817,0.4687063239584124,-1.1625318206526951,-1.9267174736281292,1.9637253581610092,-0.6752195484462093,-0.2341319911800136,-0.6336047547065432,0.09694645021540789,-0.06054780628568842,-0.19509664661319073,-0.9270985348523441,-1.1097063501185107,-0.7606054893574694,-1.0289375940370997,-0.9933942992971696,-1.1323030148899222,-0.9355013869470188,-1.100017460411873,-0.449162984098562,-0.6053287761198846,-0.47892293560359045,undefined,1488206088081
903d185fccf839df,-0.5808214839857128,-0.7612488718630959,0.7377741902658428,0.8466239894744149,-1.2166757308034386,-1.9021975723486644,1.973442490863116,-0.5920027866607792,-0.20971738411674207,-0.5158980785902972,0.11530017599460078,-0.09362466494573658,-0.669451871657754,-0.8567351733428094,-1.0676010356531311,-0.712110908139548,-0.992609580055082,-0.9296405550200313,-1.0921623102358997,-0.8088491728551414,-1.0332655398167883,-0.4559804544446177,-0.6160138616726358,-0.5016604795802754,undefined,1488206089587
903d185fccf839df,-0.5822074972839285,-0.766532065302173,0.9381095850854605,0.9719439184985597,-1.236053982183434,-1.9109159144624968,1.9833489620819533,-0.5345315905948728,-0.23286816768971144,-0.3488149062862577,0.1287654792137576,-0.05580005242283715,-0.6868594028520499,-0.8224793159400154,-1.0612852292805321,-0.7181727228423352,-1.0625152721430484,-0.8817445015948125,-1.0524903928342906,-0.7058797678192655,-0.9770866002329501,-0.46970308023753815,-0.6308824124447934,-0.5257387296178444,undefined,1488206091088
903d185fccf839df,-0.6861585291555197,-0.7635969610835737,1.1033545123395436,1.118142048809481,-1.3081464331481703,-1.9264868789143026,2.035621618428694,-0.2139527916084181,-0.2471722924052432,-0.38234016018872785,0.1524175410297013,-0.16952062172760207,-0.5650066844919787,-0.8354409950392445,-1.0718115781430197,-0.7302963805126312,-1.0537316390964255,-0.859129559290986,-1.057164263197256,-0.6862621473379479,-0.9657231730109345,-0.462367949605341,-0.6297324095250378,-0.5272652570432688,undefined,1488206092570
903d185fccf839df,-0.5752772927712108,-0.8082101593967839,1.2909299450655618,1.4187942745064348,-1.2511739565579119,-1.9496977477814188,1.9734240680973263,-0.6440770393177039,-0.2572438120763589,-0.33364600220594576,0.13910279098101644,-0.08614601908773609,-0.33000501336898397,-0.8021109755580453,-1.0349694178627413,-0.7888939956567719,-1.0623444143368435,-0.8644112347276441,-1.042156103414121,-0.7255589798745495,-0.9680346374392997,-0.4406007655785926,-0.6341406070168133,-0.5413720215504857,undefined,1488206094084
903d185fccf839df,-0.3659890777081738,-0.7870775902364215,1.8058047970366848,1.8490945097694098,-0.9956360989821073,-1.944140183314761,1.9636701160516847,-0.63202628468829,-0.2429525316079349,-0.300262613965799,0.16194888520850392,-0.12768067267677186,-0.669451871657754,-0.7826684342453465,-1.0381273081651317,-0.7767703803835582,-1.0773780426016486,-0.8367489370659227,-1.0397701902995848,-0.7069730554400677,-0.949567036492737,-0.44964799876022393,-0.6290672259620783,-0.5398175653217911,undefined,1488206095569
903d185fccf839df,-0.23570375866507362,-0.694916177075379,1.6488543915378826,1.7130079978072537,-0.7799553169362395,-1.9310265662672421,1.904444260394586,-0.9464040484977956,-0.25657497020216247,-0.3734678764498524,0.21219407353494324,0.05031688919898562,-0.8348234180035651,-0.7317476075731235,-1.0286536078090252,-0.6656369012024407,-1.0471197602836886,-0.8012021247307048,-1.0306043692194966,-0.6363557845830108,-0.9177891867449828,-0.4451630675606883,-0.6071819555906179,-0.5365302588309364,undefined,1488206097082
903d185fccf839df,-0.1996673784060543,-0.6144949908067835,1.4676590669271388,1.5045068109793587,-0.8056798480361805,-1.9366120838334042,1.964345988635864,-0.5410925166593276,-0.28829595120225543,-0.5101970979902942,0.1367228080336305,0.1368975801599672,-0.42574643493761144,-0.7354509268825663,-1.0254957175066348,-0.6151217245051641,-1.0154018534608698,-0.7755916998736885,-1.019101611918025,-0.596381420164064,-0.8949797845304438,-0.4491173031299387,-0.5953643073976609,-0.5437551754295543,undefined,1488206098583
903d185fccf839df,-0.44637795252091667,-0.4149096722355692,1.0153087662118068,0.9870649274823657,-1.0186452070001364,-1.8178185531628432,1.923594524832597,-0.7018606001879147,-0.36620252205669473,-0.5261999969514721,0.07392642752412726,0.1252608536056229,-0.35611631016042783,-0.7585967583654654,-1.0454957483196445,-0.6272453821754601,-1.0660923804993527,-0.7669788962731156,-1.0353132223583794,-0.5615501360799208,-0.8919622044026054,-0.4503254507325798,-0.6048686714103807,-0.5548709304452195,undefined,1488206100081
903d185fccf839df,-0.4228157264512489,-0.41080065493269646,0.9279014121010214,0.8566629133286738,-1.0967239309245536,-1.7801733896966807,1.9673387144051893,-0.39634850904953395,-0.3069178390984037,-0.43806432867104217,0.03236515913181954,0.006460286859672107,-0.8348234180035651,-0.7382284212211889,-1.0665484018712175,-0.5464210542362631,-1.0148631246410518,-0.7154477328504104,-1.0398051751430692,-0.4852200420430654,-0.8578158464986949,-0.449492820770912,-0.5924437787745064,-0.5545119564859715,undefined,1488206101623
903d185fccf839df,-0.25233591824366264,-0.5399440129753864,0.978942277023217,0.8566629133286738,-0.912733380035838,-1.7275186065016834,1.929224933524502,-0.5544978251302125,-0.3546184672572488,-0.31617077384145503,0.07625041112169828,-0.10178605562076241,-0.39528325534759357,-0.7067500743454858,-1.048653638622035,-0.45347311102385235,-0.9801612493208052,-0.6892356789087818,-0.999545524887655,-0.3929217605092048,-0.8144511862027828,-0.46502609378279824,-0.5788620903471738,-0.5555966695879858,undefined,1488206103070
903d185fccf839df,-0.2176855512828591,-0.5827961662942324,1.083576050113718,1.090632138423045,-0.7900147258671397,-1.8776800006504524,2.0208894458075664,-0.1251295026336818,-0.2439467843661605,-0.5105237150488138,0.09290440259682253,-0.08069224044628402,-0.5084322081105169,-0.713230907419713,-1.0507588988236287,-0.5262149722514639,-0.9508986019531732,-0.7159860332567721,-1.0139309680256352,-0.42615160580921574,-0.83580681173438,-0.4531097139070297,-0.5836612131415844,-0.55227519406014,undefined,1488206104581
903d185fccf839df,-0.44637798702632636,-0.6015806754621091,1.0063766148504225,1.090632138423045,-0.9741081349665628,-1.883752326481851,2.013047361403756,-0.23368222521416238,-0.24688982743914437,-0.42147025122935045,0.05838939344837148,-0.09141219755593112,-0.7956564728163993,-0.6845300548826324,-1.009706251270215,-0.5302562056072566,-0.9682776471005655,-0.6985641068612666,-0.9863285492578359,-0.45100469706915525,-0.823086412339078,-0.4405177602382917,-0.6089244075691264,-0.5682564387930235,undefined,1488206106052
903d185fccf839df,-0.6515081276893064,-0.5405310572015001,1.2354228773941993,1.2602673699769091,-1.0589754210249132,-1.914062718635062,1.9991356937484166,-0.3713460976039183,-0.2704124770560029,-0.35829435528143017,0.1200615237070507,0.08353903676330587,-0.8739903631907309,-0.6502742136683067,-1.0160220392372297,-0.6090599168685572,-0.9377448497515163,-0.7272713409661343,-1.00311389941349,-0.5410702059788016,-0.8558354787808732,-0.4380676282137527,-0.6408499476844828,-0.5640120930982719,undefined,1488206107574
903d185fccf839df,-0.558645236708851,-0.6045157796807084,1.3330384044894237,1.3124590037829065,-1.0318726055375613,-1.8975693759304741,1.957014090294089,-0.6348063468069658,-0.24018559579417165,-0.21733011465430838,0.1341278676780363,0.18630040257851951,-0.12546652183600712,-0.6326833643872656,-1.0307588900973204,-0.5747095605355655,-0.9531494148504306,-0.7376383687804985,-1.0213615816782653,-0.5904992163056375,-0.8758446166325808,-0.44095665415633883,-0.6452531784741512,-0.5523367018317072,undefined,1488206109072
903d185fccf839df,-0.4602381545138936,-0.6197781696318644,1.0318970473115203,1.0938656207888564,-0.9738201301641091,-1.9234472229975819,1.9780499002462932,-0.5196973794271986,-0.21397876475053532,-0.2458632717864509,0.13512269902651078,0.2577205467739679,0.8928740530303031,-0.6743458895481879,-1.0265483623318992,-0.5868332182058615,-0.9638159611624083,-0.7355548299784366,-1.024041359889243,-0.5710509800839223,-0.8734421332982344,-0.43601655331871575,-0.6528587480960909,-0.5444157446640344,undefined,1488206110564
903d185fccf839df,-0.39786752158877503,-0.7905996802251499,0.8596338740621606,0.8629707023075467,-0.9454933196759467,-1.9744924997244022,1.9838880576504563,-0.5051568060078423,-0.19449160286188136,-0.4482265607080661,0.07604443602797907,0.09483378853627508,-0.2168560606060606,-0.676197578342152,-1.0654957644081868,-0.6474514641602593,-0.9801977755578385,-0.7465551528249398,-1.0511540014613634,-0.4958295740115011,-0.873965099420354,-0.44549194980956763,-0.6458356720254635,-0.5382448100593639,undefined,1488206112063
903d185fccf839df,-0.3327248275618152,-0.828168669332911,0.5176595708095513,0.5933004586094363,-0.9667024317825226,-2.008993191393518,1.9662894013489978,-0.6526717977845162,-0.19184653424589404,-0.5387484744441969,0.10554478743334736,-0.1716355885088081,0.2705548128342246,-0.6937884276231931,-1.0623378667435626,-0.645430847482363,-0.9936947437801312,-0.7527867694810068,-1.065007687162345,-0.506007945562984,-0.8849999967980726,-0.436058672489568,-0.6247613787120381,-0.5453126027019519,undefined,1488206113574
903d185fccf839df,-0.015327402710900852,-0.8463661927306587,0.4206819274573796,0.4869105952049208,-0.8285140921167095,-2.0177092039315343,2.0098863344978883,-0.3327749064943556,-0.20972189972701827,-0.720085590468052,0.1643759252101682,-0.189046989087359,0.7144468582887701,-0.7002692606974203,-1.0897063229866177,-0.3019275526673009,-0.881817549411189,-0.7380310099486236,-1.0632654813519253,-0.09319102353206107,-0.7927140841814616,-0.4574584185699856,-0.48529279567103667,-0.5646235282458238,undefined,1488206115066
903d185fccf839df,-0.26065199803295713,-0.8269946393366683,0.34667318159409477,0.3651587153384619,-0.9278224996097971,-2.0108099978797047,1.9766455893867931,-0.5825076683230455,-0.21395220363184916,-0.5260069456976616,0.1741068052238352,-0.20632130587549005,-0.4649133801247772,-0.7234150921803194,-1.1118116324068057,-0.06753702142893463,-0.8843326681858351,-0.7291712227350154,-1.0625168228633886,-0.0014470864650606508,-0.7712463076701072,-0.4591442967098219,-0.5035900888671634,-0.5569237214985171,undefined,1488206116555
903d185fccf839df,-0.43944785152442817,-0.8211245039694505,0.5514747791628793,0.5996454057264089,-1.012412071626051,-2.0096174271106775,1.9407539919091257,-0.8421040979088249,-0.2756818821892202,-0.5207729681823053,0.10247495745792283,-0.09409020261856567,-0.6868594028520499,-0.6919367258784545,-1.1265484832668964,-0.0230836382359041,-0.871224571986594,-0.7561938936611335,-1.0710249451524616,-0.04782720441852181,-0.7933788361134156,-0.46296142250852,-0.4668394522473746,-0.5545994184067703,undefined,1488206118060
903d185fccf839df,-0.5531011145051685,-0.7759243198861113,0.528506135810942,0.585945668794644,-1.0924862273896538,-1.9965899932927789,1.9305214177281442,-0.923793423861273,-0.2631613022688165,-0.3078028820406335,0.069259510358467,0.02246896530548659,-0.8913978943850268,-0.6919367194030671,-1.1223379518203584,-0.09986674695166912,-0.9102909316255446,-0.7411468202034168,-1.076951243744793,-0.0937453690893685,-0.7970945024634567,-0.4727282121712193,-0.4939721378270441,-0.5415535345019187,undefined,1488206119581
903d185fccf839df,-0.6293319494232641,-0.7518566465071498,0.39835142198544427,0.5627104366099366,-1.151824410233701,-1.9887427862065372,1.9446513585472054,-0.8266318644947236,-0.2113044389706771,-0.34903726152666553,0.05811389836990861,-0.013757766639621678,-0.9871393159536542,-0.6808267226224151,-1.1265484795857794,-0.3463809358603315,-0.9381655940302653,-0.7496709616457364,-1.095492792317188,-0.21784143979669518,-0.8254855767702002,-0.4769985688042246,-0.5699557599010868,-0.5220978227664544,undefined,1488206121076
903d185fccf839df,-0.7083347764323814,-0.7952957855961248,0.22162306253471553,0.22068516395415483,-1.3092264285064719,-1.989304133391706,1.970794261491115,-0.6849814366421072,-0.181405150647011,-0.5409143897551674,0.06122525030602325,-0.0665268796704885,-0.9392686051693405,-0.6993434033496637,-1.1065484561350034,-0.6373484231678598,-1.019999939185146,-0.7724505601252921,-1.0823597785279961,-0.6080226486639787,-0.9172042702314286,-0.4638759098896245,-0.640461955094631,-0.497300124578122,undefined,1488206122554
903d185fccf839df,-0.8053557935710084,-0.818776443976965,0.19227431106750364,0.14830038248383165,-1.416907390678167,-2.000661502721659,1.966102681636753,-0.7515274654165671,-0.22617281730835798,-0.6197460404131442,0.029407679350029,-0.013821945856631742,-0.9218610739750446,-0.7317475816715744,-1.0970747631411306,-0.6232041770843889,-1.026517275749347,-0.7564092120242618,-1.090266174855344,-0.5435801550905358,-0.9039977326248744,-0.4637091580839763,-0.628322674005995,-0.49547495371568656,undefined,1488206124090
903d185fccf839df,-0.754073249778911,-0.7653580060779379,0.06786207575117713,-0.022924280913857054,-1.3565509219648264,-1.9914423742525489,1.9946492301840442,-0.5350400303970675,-0.2104084039972572,-0.6580932192485105,0.00451841581496733,-0.06504668036214581,-0.7042669340463459,-0.7123050759735055,-1.0865484253219935,-0.6353278064899633,-1.0146920396504389,-0.7189308504555897,-1.0810233876933704,-0.5442730840182471,-0.883896601556219,-0.46290747781331854,-0.6376183360514738,-0.4842075145351722,undefined,1488206125564
903d185fccf839df,-0.6085417499500279,-0.7518566611211459,0.20822445428721506,0.1342019604892131,-1.1859009224135981,-1.9755732681072962,2.017394423910358,-0.3375017961878168,-0.1632411713881273,-0.7334730898889689,0.0029457447965910454,-0.01898458213102553,-0.8217677696078431,-0.7298959317299338,-1.0697063068980754,-0.6110804628846498,-1.0147723506675914,-0.7274929903129602,-1.0855923056362689,-0.5472757813514538,-0.8912772087710414,-0.45442367667336603,-0.6190274247564893,-0.4738486206948855,undefined,1488206127077
903d185fccf839df,-0.4034114712654088,-0.7994049051969707,0.2433146677158004,0.1905296461699317,-1.0724702534308348,-1.9400081140299965,2.010911962038797,-0.31487869141334746,-0.19370587863750974,-0.37207657069795613,0.01792442335956948,-0.0687658347122125,-0.5911179812834225,-0.7030467744622048,-1.0654957717704208,-0.5888538207513972,-1.0119980976447274,-0.7149980929689859,-1.0868027544684695,-0.5032208271660655,-0.8780404171944538,-0.4413402496673039,-0.6100755640766267,-0.5010302945940708,undefined,1488206128568
903d185fccf839df,-0.43113180624054337,-0.759487856096724,0.39069580052101377,0.2734821460536835,-0.9791378408883922,-1.9199230837474683,1.9993066252121834,-0.35722484219077977,-0.19750744763216346,-0.248569851881671,0.03513879177519664,-0.04365843885780094,-0.7260263480392157,-0.6974917210310868,-1.0623378777869132,-0.5545035068154879,-1.0251569251248827,-0.7122559286058251,-1.0851445104130384,-0.47781339147965257,-0.871556991167258,-0.4359753336821679,-0.6019486703698923,-0.5122819893060421,undefined,1488206130072
903d185fccf839df,-0.39370941268330834,-0.6878719678699301,0.4385467384540469,0.49357121188579983,-1.0674714106476961,-1.9034367286853318,2.001886458743694,-0.3469335879005288,-0.16845217484171476,-0.21150443898688703,0.07586895252248267,0.010942824937785837,-0.7173225824420678,-0.7234150792295448,-1.0497062760850657,-0.6131011078272677,-1.0087848294324737,-0.7250928067299417,-1.0700383956263022,-0.5370358130160907,-0.8800843644404669,-0.43721355028201264,-0.610062553971059,-0.5045381315105054,undefined,1488206131559
903d185fccf839df,-0.5018185879657759,-0.6726095633047778,0.6765246440853092,0.7538389867905306,-1.1000153593862725,-1.9318301546432035,2.005775940685231,-0.34884264552991723,-0.1849728452676355,-0.0551718120810711,0.055539236006201004,0.061596800431859736,-0.9088054255793226,-0.7761876205972811,-1.0412852279164573,-0.5949156425203649,-1.013017664036543,-0.7549653032299728,-1.0650076886426738,-0.5220993208658812,-0.8921573812895237,-0.436312111340113,-0.5791128618678516,-0.5048521379038261,undefined,1488206133067
903d185fccf839df,-0.5336968938247383,-0.6784797278999879,0.8794123362879862,1.0096402503764959,-1.1530689790032067,-1.965152250724452,1.984385096266455,-0.5297907923475081,-0.20988163550902406,-0.011015963901897899,-0.010125375706196925,0.06061007311914938,-0.6650999888591801,-0.7808167972544805,-1.039179964033747,-0.6393689974486738,-1.0091098197168467,-0.7610829268001867,-1.0564855733741385,-0.5254407825719013,-0.8938136397114689,-0.44102113371774865,-0.6124325581389138,-0.4943465233959261,undefined,1488206134582
903d185fccf839df,-0.6307179282160701,-0.6731965783028993,0.8130592118891319,0.9252276925123313,-1.1652472431444532,-1.9739940428443685,2.0309931465248066,-0.2229466073451774,-0.18508155641775142,0.027070804561223818,-0.022389329145441252,0.027202930029139153,-0.7173225824420678,-0.7511901132711925,-1.057074701515111,-0.6252247372328422,-1.0045265711308613,-0.7666115871952899,-1.054827328963918,-0.5274579804735305,-0.8950752067348953,-0.44069249620714873,-0.6147866330907295,-0.4861303960640309,undefined,1488206135995
903d185fccf839df,-0.5364689204211698,-0.683175847884959,0.7754169552144368,0.9338812848612033,-1.087230228196911,-1.9695847937148554,2.016592334377707,-0.29476695160534067,-0.19206410624809028,-0.11265785980104921,0.012821270082700063,-0.009281099471802499,-0.7434338792335116,-0.7382284341719634,-1.0444431255810815,-0.6009774501569717,-0.9825959933271072,-0.7586194126010845,-1.044108213972918,-0.5051302355726259,-0.8820694259386594,-0.4251877840358615,-0.6134269244856939,-0.47941722125986963,undefined,1488206138041
903d185fccf839df,-0.5253808140354437,-0.6520640383705293,0.860910149822165,0.7995156600752105,-1.090387938692113,-1.9671623855462108,2.065167488102084,0.04315382776340949,-0.200371065196791,-0.38761119238758185,-0.02764695216393264,-0.02297835099665825,-0.8696384803921569,-0.727118405014375,-1.04023258677231,-0.548441699178881,-0.9690820533037783,-0.7410391608640577,-1.0501114776072342,-0.4743333432395857,-0.8713198065213948,-0.4215297757209911,-0.6103765497103432,-0.4777662496565632,undefined,1488206139536
903d185fccf839df,-0.4560800456084269,-0.6773056686757527,0.8545297875699411,0.923936792094773,-1.013687499341155,-1.9464764113407071,2.0065359575525505,-0.31325631382437186,-0.2323866117867578,-0.260565475885262,0.005202598904605989,0.010180066580095033,-1.021954378342246,-0.7206375913663096,-1.0244430947680718,-0.5423797926157488,-0.9718941123756901,-0.7216983505853961,-1.0345715606684853,-0.44315149170896095,-0.8547533816462738,-0.4170100852828809,-0.6207347508932415,-0.48780366612083315,undefined,1488206141022
903d185fccf839df,-0.535082907122954,-0.6872849382578124,0.9598019526773937,1.025603426357891,-1.0780553914158935,-1.9614510897572268,1.9542080737617906,-0.6924052435786132,-0.26313469256165334,-0.20601284570112866,0.005268774070508376,-0.08408529524623173,-0.9523242535650625,-0.7086017501886753,-1.0254957248688685,-0.5504622875920558,-0.9768659656963815,-0.7307354612074977,-1.0412745054332886,-0.40953668525933057,-0.8553429604093988,-0.41672434412838383,-0.6086261598356787,-0.4876502890546021,undefined,1488206142611
903d185fccf839df,-0.5059765761023086,-0.6209522142421033,0.9878744283846013,0.9195420321437638,-1.148481561092823,-1.9404040846838946,1.916336236894802,-0.9398679124165514,-0.2532841184662098,-0.09938493658608046,-0.012116660449751893,-0.013635035738184425,-0.8783422459893049,-0.6965658960602666,-1.0076009616196862,-0.4514525226106775,-0.963753756215324,-0.7184115531434929,-1.0332141788017575,-0.420977730077836,-0.8483978273464,-0.4176919040028595,-0.594324297724788,-0.4939244886670515,undefined,1488206144066
903d185fccf839df,-0.4768703485978924,-0.7242669269814485,0.9419373958176758,0.9175254820253173,-1.08527595177917,-1.944620005931315,1.9518123222826484,-0.7090341962064126,-0.2692333989881856,-0.008377819190053733,-0.002593306328628988,-0.029992070919433365,-0.8348234180035651,-0.6928625702754365,-0.9981272686258135,-0.43326697250961,-0.9703609768268306,-0.7168346485787992,-1.0266441733885574,-0.37467460414967163,-0.8377692302023042,-0.41250012210373516,-0.5873300847876106,-0.507310136188144,undefined,1488206145514
903d185fccf839df,-0.3091626014921474,-0.7119395827929069,0.6478140304980995,0.6923777528988807,-0.964048724251198,-1.9232725291488308,1.9423213568685023,-0.7312220213572747,-0.3144982963620919,-0.024559668282427227,-0.02239568879074015,-0.033672747282807974,-0.7869527072192514,-0.7021209106390609,-1.013916749586701,-0.4413493968241132,-0.9617975033521593,-0.6942893695579004,-1.0140639078482523,-0.3794173257509971,-0.8290269460984524,-0.4168666389509455,-0.5817504289600424,-0.501390406870018,undefined,1488206147023
903d185fccf839df,-0.39509539147611433,-0.7647709764658203,0.6133614466756174,0.7177472005782831,-0.8609243221905868,-1.9496371868649998,1.9867519267163891,-0.4385457330171397,-0.2679913228008851,-0.16857967855525421,0.02508864942668969,0.1275652820574458,-0.7347301136363636,-0.7021209171144481,-1.000232536189641,-0.5282356454588033,-0.967302475551153,-0.7290065660997432,-1.0073889506389258,-0.41015262210789577,-0.8509166898219584,-0.4069086191782737,-0.5786189088732683,-0.49667820743718744,undefined,1488206148519
903d185fccf839df,-0.5073626411586389,-0.7659450503040516,0.7479823632502819,0.7701454473811977,-0.9087939615570128,-1.9688976661744695,1.9491956715026468,-0.7234677607900457,-0.275157489809566,-0.3480998454542425,0.08205818051194577,0.06614072915265307,-0.4605614973262032,-0.7002692347958712,-1.0339167951241783,-0.4534730827591308,-0.9594544296202027,-0.7026298555339158,-1.0021133553357842,-0.387824875766524,-0.8312358814490607,-0.40828448293071956,-0.5836132948631851,-0.5052227417972819,undefined,1488206150027
903d185fccf839df,-0.49904659587475414,-0.7859035602401788,0.7026834685633586,0.7490582954179891,-1.0170509231689677,-1.9808489936763316,1.9600856944544967,-0.6757182127725323,-0.2635682063705614,-0.3838281566181267,0.10969042375446195,0.10284374242498864,-0.678155637254902,-0.753041789114382,-1.0244430726813705,-0.5262150287809069,-0.9588765750595698,-0.7008376325618004,-1.0083685045348012,-0.3901962365806491,-0.8330474560606405,-0.40336826854457924,-0.6028174990495503,-0.5004884934689361,undefined,1488206151522
903d185fccf839df,-0.403411574781638,-0.7166357173918743,0.8392177822302318,0.8213455683315003,-0.9918612519639778,-1.9945379330340034,1.9403279679381025,-0.8203335386423052,-0.2528479602468704,-0.2276773852778342,0.10342281031397374,-0.004702087648856888,-0.8000083556149733,-0.7632259544488266,-1.0360220626880057,-0.5060089185313861,-0.9937128165791466,-0.7278159725222936,-1.0091801344680376,-0.3972949206852765,-0.8461982825430642,-0.42853885610627906,-0.5771637301234259,-0.501987260391832,undefined,1488206153014
903d185fccf839df,-0.38400738860661754,-0.7459865111399321,0.853254274220785,0.7621088798988375,-0.9157985190976519,-1.978638546362134,1.9433469885994983,-0.7708662832072807,-0.220639248788998,0.11159973058573416,0.09021904685657389,0.02398110901316926,-0.7434338792335116,-0.7530417632128329,-1.0328641650233814,-0.47974098651289765,-0.9565419856233487,-0.7430657006538401,-1.006479364968041,-0.37421265057088615,-0.847567894220437,-0.42482307359246124,-0.5936827609502734,-0.5100127931562429,undefined,1488206154532
903d185fccf839df,-0.32163668667067946,-0.7459865111399321,0.9700101256618328,0.9649743055458664,-0.8373392212599979,-1.9544354217105275,2.011374815828573,-0.2761354819947957,-0.23871128866423486,0.04485896038745212,0.08243867823399027,-0.08452876136467267,-0.7782489416221035,-0.7808167972544805,-1.0528641884741574,-0.4918646583155544,-0.9959491704171812,-0.7509628822112911,-1.0260144608439679,-0.3266160555887159,-0.8470933420087619,-0.43138207171758364,-0.5836582037625807,-0.5099536384571466,undefined,1488206156018
903d185fccf839df,-0.44499200823352036,-0.6825888182728413,0.5259540925648322,0.4679868610335087,-0.9890429627552964,-1.9473452179535875,2.0615383551321647,0.02461116505864788,-0.2906757983386778,-0.5236800798649452,0.13424467524359127,-0.00011425974280038349,-0.8043602384135473,-0.8419218086873099,-1.077074724965887,-0.4393288790727422,-0.9790826068091969,-0.7999038706124396,-1.032773379740995,-0.3138969391250533,-0.8707820379909283,-0.4465766686831913,-0.584391244791728,-0.4985575907113148,undefined,1488206157534
903d185fccf839df,-0.4740983220014609,-0.6109729300460475,0.51766007908345,0.46305301623988687,-0.9748075599665539,-1.9613322992534175,2.047503087237795,-0.08944461298943841,-0.24285604326529184,-0.5985009539157636,0.24321636190094093,-0.19971597791636672,-0.5084322081105169,-0.7993334650309546,-1.091811597912679,-0.3039481128157543,-0.9316018899073676,-0.7947425213548018,-1.0405748239908312,-0.27783378073797577,-0.8641757994308497,-0.44305157776742105,-0.5712162295636727,-0.4806950850143391,undefined,1488206159026
903d185fccf839df,-0.5697332740837575,-0.5933624508744135,0.2835094759105042,0.2975289658706869,-0.8690500229950144,-1.9758178375619406,1.9751992079570062,-0.573942568921934,-0.2535065013539802,-0.7215686880607418,0.2949537050037143,-0.3121910182056471,0.8275958110516934,-0.827108492597215,-1.0654957644081868,-0.18271164917168026,-0.9575520518406487,-0.8303273325037105,-1.0549322802033918,-0.22446277047701058,-0.8688311218803116,-0.4501837833907298,-0.5821116605127998,-0.4945942140615986,undefined,1488206160543
903d185fccf839df,-0.44914997911734816,-0.5557934909946447,0.5297824115709462,0.5488105344066069,-0.7763347490320353,-1.966405382099575,1.9966952476568929,-0.40388357293560245,-0.2894430713338969,-0.6718371381413142,0.30658810627135236,-0.32365287884654026,1.1452832553475936,-0.818775957778249,-1.0539168148938374,0.13654441509695436,-0.860726721669774,-0.8561340776181262,-1.0516857599933158,0.11636642178498476,-0.7984303791909718,-0.4734435965514891,-0.5697518246240832,-0.4932200963464628,undefined,1488206162061
903d185fccf839df,-0.2620380113311729,-0.6497159637640475,0.5999638549759146,0.5291404572221643,-0.8393037829286614,-1.9827123853106554,1.9905862074019516,-0.46167249324952553,-0.2807551321916782,-0.6419056176150069,0.31513953557794755,-0.36251598940173174,-0.07324392825311943,-0.816924294885834,-1.0318115275603508,0.14462682527909684,-0.8477536601273019,-0.8537782218559065,-1.0330532524880323,0.13128751348386378,-0.7902212916388404,-0.47995152577910816,-0.5553081196941501,-0.4941997707621402,undefined,1488206163557
903d185fccf839df,-0.32579476107073646,-0.5610765821357487,0.7237374441383402,0.6973307126819144,-0.8987139710493837,-1.9620823147237219,2.0009502665185064,-0.3860155333520673,-0.280460453582083,-0.5745922028463427,0.3972847061802439,-0.31490388792686896,0.2618510472370767,-0.79563012629535,-1.0181272994388233,0.24565722107073235,-0.8321861559779383,-0.8415556406194433,-1.0359989100995615,0.16297751535661775,-0.778371876564314,-0.47969714898221016,-0.554305225317918,-0.4829028698384274,undefined,1488206165054
903d185fccf839df,-0.4810283539871299,-0.5980585708593846,0.7307559442705661,0.7234044484370549,-1.0766256767708284,-1.9721795659960633,1.9892791798914538,-0.5056913992783577,-0.2560780490915525,-0.5048614297291618,0.3913774883463683,-0.2798430215946337,0.8450033422459894,-0.7845201359900852,-1.0118114893851071,0.21130687887010147,-0.8415131639276099,-0.8491868380164606,-1.0396792324738844,0.16574923443303996,-0.7775973610181434,-0.48448633034832045,-0.5537876268557154,-0.5062623834428003,undefined,1488206166525
903d185fccf839df,-0.5087486199514449,-0.5569675209908875,0.946403852703792,0.9652545292440416,-1.1103113369344282,-1.9415360949863583,1.9691480139505686,-0.6252473245828725,-0.25984478614751894,-0.4039014778942127,0.40422749919158973,-0.16688787745975742,-0.2734305369875223,-0.7400801229659275,-1.0265483660130161,0.10825590879765186,-0.8827559029445721,-0.8388578074599842,-1.0407147603918767,0.11738271743433944,-0.7855611905949077,-0.48158579259272044,-0.5684722046880128,-0.5018731431344485,undefined,1488206168034
903d185fccf839df,-0.44914997911734816,-0.657934173737747,1.1237706041714723,1.1048627625873226,-0.9978886660433781,-1.9343294284431114,2.020571245349835,-0.24528795188666475,-0.3389780940807447,-0.4164359841598164,0.3969587026001052,-0.17522693766165362,-0.6563962232620321,-0.7234150986557066,-1.0233904573050412,-0.1039079803074619,-0.9165690685810701,-0.8000875264663105,-1.04063079902838,-0.17789787419375136,-0.8351262195154397,-0.48921950662293234,-0.5492557067506224,-0.5079495172794144,undefined,1488206169524
903d185fccf839df,-0.5420130081194425,-0.7465735407520496,0.8015747631446885,0.8438877327062323,-1.0887833704022285,-1.962198775539364,2.0377991040767673,-0.17027790086553876,-0.3065229159933008,-0.477421344578135,0.3036500256196293,-0.13250892253829707,0.0007380793226381577,-0.7354509333579535,-1.057074708877345,0.2941518093548341,-0.7637478775520271,-0.8173764635527005,-1.0547083820228897,0.22665008655004787,-0.7478919614071453,-0.49335766090524025,-0.552086162451286,-0.554649976868166,undefined,1488206171017
903d185fccf839df,-0.3923234338905023,-0.782968499863568,0.7658466659730504,0.7767675365439091,-1.0853582370353942,-1.993745991641944,1.990494148044136,-0.5074639528968956,-0.3108073643044919,-0.5278423879841364,0.30613623809957996,-0.17309582586305913,0.12259079768270946,-0.7826684536715083,-1.0633905042065932,0.27394581216419944,-0.8329754955237029,-0.8246783475075369,-1.0406028114484351,0.23944619443320347,-0.7481179679831004,-0.4944379663933997,-0.5547108931661098,-0.5716164607055284,undefined,1488206172528
903d185fccf839df,-0.5988396223571077,-0.7230928823712095,0.8800504741679883,0.8360296851169929,-1.1906220600109472,-1.973719192523338,1.9824469337325525,-0.5790477416870222,-0.26857906933251235,-0.39270533276016056,0.3220579515509452,-0.1767572356097234,-0.6955631684491979,-0.7724842818616764,-1.057074701515111,0.32446100299383684,-0.7693590634002062,-0.8198969752027424,-1.0224950646426778,0.21847351300081835,-0.7424948009063386,-0.5057134306147831,-0.5503230498425576,-0.5726530547696188,undefined,1488206174023
903d185fccf839df,-0.40063954818520653,-0.6808277732784772,1.20416022056088,1.2844394816253886,-0.9724727118041409,-1.9327828126202922,1.963672747426431,-0.6198449512093702,-0.24719652730588376,-0.3708705023771215,0.4467209434284951,-0.2145709774290751,-0.3125974821746881,-0.7530417567374457,-1.076022102227324,0.24565726346781466,-0.8082129502321777,-0.8022090629470469,-1.02670714493113,0.296574427752429,-0.7230729763583279,-0.4903855013632659,-0.5755355191900204,-0.5783139695451524,undefined,1488206175525
903d185fccf839df,-0.3784632318975253,-0.7589008264846064,1.384717661428571,1.400674373721131,-0.8845402815666439,-1.9423210478611723,2.0099941506785277,-0.3030326568873331,-0.25030691153105805,-0.2785266020364443,0.3632580358567456,-0.19362208710032988,0.2792585784313726,-0.761374278605637,-1.067601039334248,-0.2271650606294323,-0.9596434678297457,-0.8285857731308444,-1.0008329381990708,-0.14434465805263014,-0.8237392727277074,-0.47515315253398777,-0.6537288619090504,-0.520906836764656,undefined,1488206177015
903d185fccf839df,-0.36183114132975575,-0.7770983352683579,1.556980580540981,1.5573841477443047,-0.8275163758570281,-1.9776998619239843,1.985902501768914,-0.46980296066190225,-0.21383412648480857,-0.3954719905990857,0.28338798068310905,-0.21173631094907344,-0.44315396613190733,-0.7400801100151531,-1.048653638622035,-0.18069107489086617,-0.958659603608029,-0.8062811453606533,-0.9910583935266939,-0.2211367046047487,-0.8326884757455596,-0.45775521552342463,-0.6145457933426896,-0.5014018100411567,undefined,1488206178528
903d185fccf839df,-0.34104094185651945,-0.77533730488799,1.5244421562215562,1.476987847052015,-0.7548685015533351,-1.9953648125191725,1.970436619742799,-0.5685437284533457,-0.19913459005141956,-0.0714652311360201,0.22336471608831093,-0.20364929986404756,-0.6389886920677362,-0.7058242234731164,-0.9970746458872505,-0.223123799008918,-0.9466465724458367,-0.7914747229377143,-0.9536744326884034,-0.19839320128638743,-0.8120903093003051,-0.4403272637977333,-0.6127931598353682,-0.5085478839659927,undefined,1488206180039
903d185fccf839df,-0.02087152491458333,-0.7318981365710227,1.152481217758682,1.134679058906901,-0.7212137023698635,-1.9709147882803355,2.0092893738254887,-0.26488872352758364,-0.16323520561751179,-0.14736127364970966,0.2115185977421139,-0.10043335150304819,-0.2168560606060606,-0.7067500872962603,-1.002337818477936,-0.18675285426275148,-0.9458520708635644,-0.7854520936278577,-0.9446065660063269,-0.20894113706328446,-0.8063262848726486,-0.4359636717465929,-0.6301451139882731,-0.5201921687896247,undefined,1488206181521
903d185fccf839df,-0.07631205684321342,-0.8275816543347896,0.743516160501115,0.7696426443202622,-0.7886673008954492,-1.9652943345917284,2.005568199305625,-0.31794992950678097,-0.21878123299958202,-0.15338037863273318,0.20680477266017408,-0.09362170702759529,-0.8391753008021391,-0.7067500743454858,-0.9918114512098636,-0.15038188125186344,-0.9592565430350172,-0.7885615686634039,-0.9309697812100741,-0.23508769768686297,-0.8073272946082903,-0.44774845241753747,-0.581221944690941,-0.5325887593759514,undefined,1488206183033
903d185fccf839df,-0.32579476107073646,-0.8222985339656933,0.7364979145058385,0.748417306754157,-1.0456657253121595,-1.9905875429440507,1.9946991959260925,-0.4716873633637082,-0.22682070755527386,-0.3487004731485297,0.15319139151277894,-0.0540961739481657,-0.9131573083778967,-0.7086017372379008,-0.9749693548726469,-0.24737111434951004,-0.9802334637918093,-0.767954169826437,-0.9428013880844481,-0.3165608725970142,-0.8150303986750935,-0.45752799543018496,-0.5952581262906635,-0.5241711866806407,undefined,1488206184531
903d185fccf839df,-0.40063951367979683,-0.8264076243385469,1.155033261004792,1.075555289469778,-1.0608988416078662,-2.014485537568441,1.9680408525508295,-0.6828502600537929,-0.24396308686782003,-0.4368872126741567,0.1574278426647986,-0.0857909403414079,-0.7782489416221035,-0.7123050759735055,-0.9770745929875392,-0.34638085106616684,-0.9322648540898386,-0.7663076048855653,-0.9816896629920735,-0.39794165630945766,-0.8432612349910775,-0.43985342014290374,-0.586288512328245,-0.5116390879934433,undefined,1488206186025
903d185fccf839df,-0.3424269551547352,-0.7600749003228378,1.2156444151683738,1.1542710457657728,-1.0205789098892446,-1.9960053536293565,1.9762747719093534,-0.5695745495307736,-0.2388952190423706,-0.49753834462646795,0.08152078508249586,-0.09970124525622055,-0.517135973707665,-0.679900878225433,-0.9781272451750374,-0.37871054832417983,-0.9243003739320474,-0.7387656332533741,-0.9885255473042259,-0.4113844977301363,-0.8320710343519521,-0.44423491591911335,-0.610267844004414,-0.535632882019555,undefined,1488206187536
903d185fccf839df,-0.3188647290850674,-0.7201578219945987,1.0803861231245555,1.085953212693668,-0.8210672437158827,-1.9837256048429301,1.9951383788658914,-0.3816936021778783,-0.2956158248869382,-0.6314584784834703,0.05931337317163629,0.009239121431682477,-0.7913045900178254,-0.6586067161103363,-0.9454956163412968,-0.396896056028165,-0.9234717295277137,-0.7456242112061596,-0.9842225089453907,-0.37838562903104583,-0.8293330096257783,-0.4375776844889084,-0.5974773898664979,-0.5247152784502406,undefined,1488206189025
903d185fccf839df,-0.20521139709350758,-0.7131136127891498,1.0031869419982093,0.9009837339777671,-0.6683246469397305,-1.971522720596427,2.019984788178463,-0.1666758243559386,-0.3276332631579555,-0.5974447684281217,0.09929688010402918,-0.037402000953022034,-0.7913045900178254,-0.6280542136316152,-0.9423377334011401,-0.37264881134937683,-0.922584126815702,-0.7232309234591615,-0.9985659713282178,-0.35340934892861664,-0.8221171960693875,-0.42325970530411416,-0.5972869636597603,-0.5242609955425832,undefined,1488206190535
903d185fccf839df,-0.15254292626671875,-0.7753373195019861,0.9840463635154366,0.9710134134920183,-0.6131213121085753,-1.9962965090063605,2.038950951708713,-0.07618579142480335,-0.28650284678987803,-0.24068836667467078,0.2111419304031473,-0.04555644915004155,-0.7913045900178254,-0.6058341812179873,-0.938127205635719,-0.2635359771108773,-0.8932425629089229,-0.7072022430393659,-1.0039255281783677,-0.24172442646260453,-0.7964408064605577,-0.4062498995269114,-0.538264339440173,-0.5099199529222275,undefined,1488206192083
903d185fccf839df,-0.12343664700418794,-0.8035140394118128,0.91195126888131,0.9481823747491561,-0.7306662581802765,-2.005611136456006,1.982170802797587,-0.4877557565581636,-0.23617270131225054,-0.027712844863203082,0.2440855586181356,0.0076977250644451375,-0.7651932932263815,-0.6067600320903567,-0.9318114066253537,-0.27565966304589484,-0.924002579987718,-0.7126169089976693,-0.990267753377679,-0.1917564718106057,-0.7866979892414326,-0.41384397787039384,-0.5353529598016612,-0.5136455070534837,undefined,1488206193370
903d185fccf839df,-0.15115691296850298,-0.788838664458778,0.8117834444030264,0.8566195410975519,-0.7842341668362247,-1.9956256877057055,2.004150721097176,-0.3430831535624791,-0.24190788692186482,-0.01683433122240058,0.19972846436497957,-0.10167971773552452,-0.8217677696078431,-0.6012050045607878,-0.9465482758910287,-0.25343293611847767,-0.921977786832309,-0.689849975635872,-0.985747813465707,-0.1883072210672354,-0.7726824672498448,-0.4163019363792855,-0.5378239630724916,-0.5265140474557821,undefined,1488206194861
903d185fccf839df,-0.3756912053010938,-0.8087972036228975,0.9834082256354344,1.036884829198552,-0.8368969365134028,-2.0313515580545403,2.0025623156150463,-0.3988222377145763,-0.21340757211223427,-0.05414265636504197,0.14147578737092095,-0.07732554829560172,-0.5911179812834225,-0.6012050045607878,-0.9539166902777234,-0.3019275526673009,-0.9212644931969374,-0.7046753967569632,-1.0040164865974235,-0.22058236344961665,-0.794400470566158,-0.4029745683766014,-0.5102662237363128,-0.5135411472468516,undefined,1488206196329
903d185fccf839df,-0.47271234320865485,-0.8029270536416837,1.155033261004792,1.1581882084907476,-0.8168604006869881,-2.033384984023561,1.9914934791216914,-0.4757076426379417,-0.23803959745246334,-0.06813939090156376,0.1442808125443047,-0.06727629812278846,-0.6041736296791445,-0.5697266835866338,-0.969706163876377,-0.4069991394176469,-0.9438518768593271,-0.7106093636538797,-1.0114750874385066,-0.3008544613246709,-0.8068274548375014,-0.4114529078105247,-0.5259683548937835,-0.5023737003418103,undefined,1488206197825
903d185fccf839df,-0.31609266798322616,-0.8416700435176953,1.1639656665031255,1.1945071932871618,-0.8883254235222185,-2.044481479858582,1.937445708055794,-0.8455770024432921,-0.22559167333898383,0.20863970821518438,0.20020525431381248,-0.03617937514182474,-0.9175091911764707,-0.5697266447343102,-1.0076009542574524,-0.35244272936457754,-0.9381244811519422,-0.711787291521148,-1.016204931952047,-0.38000246818573474,-0.8272016719611841,-0.4054326760337591,-0.5948131499950321,-0.5019589929163902,undefined,1488206199322
903d185fccf839df,-0.25787993693111594,-0.8134933089938725,0.7951949091663634,0.7820205780874203,-0.8420397836722825,-2.0238281162932537,2.0148750816198815,-0.3053689653742624,-0.23504652268344156,0.18242886421175786,0.18780309311100035,-0.0266372937481222,-0.9740836675579323,-0.6336092023088603,-0.9876009528933777,-0.3665869613156877,-0.9245786588052267,-0.7288355767533337,-1.0252168246731774,-0.37244183135044723,-0.836384143361899,-0.415393071574878,-0.5781216760276607,-0.48426361291915415,undefined,1488206200826
903d185fccf839df,-0.2800561842079777,-0.786490560624304,0.814973371392189,0.7137976322783713,-0.8594637564939793,-2.0158807517195,1.9872068895244916,-0.4864922091491461,-0.279612150681777,-0.06890523257472969,0.14721423551799437,-0.043918383191244185,-0.6520443404634582,-0.6317575523672199,-1.050758917229213,-0.4049785651368329,-0.9530429174456585,-0.7276829821999682,-1.0413864537894921,-0.3220119230658135,-0.8389075308324375,-0.4030627358553612,-0.5691357260943543,-0.5010431183275402,undefined,1488206202331
903d185fccf839df,-0.3313387797581897,-0.7964698302063637,0.9955305581229306,1.0513077262936497,-0.8697597416361131,-2.005986142700248,1.9619370855205993,-0.6456711330016628,-0.2605399450919768,-0.4588925007886175,0.0576591624132936,-0.050007691697203795,-0.7216744652406417,-0.603982537751734,-1.05286417374969,-0.374669442159634,-0.973613848884182,-0.7448072614773128,-1.0340118149174944,-0.3419683085526733,-0.8456403818144399,-0.3999969253179712,-0.5586434787502664,-0.4901969801790167,undefined,1488206203821
903d185fccf839df,-0.4477639658191324,-0.8446051331222983,1.3234686235219362,1.3568823473538454,-0.8611300372796552,-2.03183138093385,1.978573238991972,-0.5580081786522115,-0.23012887522744457,-0.06938037740280902,0.07500345673347407,-0.012069231335831453,-0.8870460115864528,-0.6956400710894464,-0.9254956002527546,-0.4090197419631826,-0.9931911454294798,-0.7982889707719846,-0.9794926659672327,-0.37544452811823703,-0.8577900964103726,-0.4052086331262314,-0.5973590258117528,-0.46630144437067034,undefined,1488206205319
903d185fccf839df,-0.2010534262096798,-0.8246466231861712,1.1314272421837006,1.134332016060571,-0.7627576324121608,-2.02384674971501,2.0005584200410533,-0.39059854899861124,-0.23299330687467512,0.03332471493559967,0.20259821101482273,0.10359056784777393,-0.7738970588235294,-0.7095275751594956,-0.980232505376631,-0.3322366473797783,-0.9843208553568028,-0.7920510203195936,-0.9728456960197642,-0.32536878372884775,-0.8433117590016493,-0.40085920218279847,-0.5285592606073762,-0.4609574725855192,undefined,1488206206818
903d185fccf839df,-0.14838492087748123,-0.8046880694080555,0.6395202711536668,0.6617946279903059,-0.7362102484338938,-1.9979199877232574,1.94382035636552,-0.7595425363343926,-0.19619961221163412,-0.18005555580982585,0.3584032629340057,-0.011298975898430883,-0.7608414104278075,-0.6910109009076342,-0.9581272438109627,-0.27161838729301974,-0.9451364096261239,-0.7484233708111304,-0.9655340287331583,-0.23895270488219275,-0.8071644385962896,-0.39085280613463197,-0.44744226625304107,-0.4857627358154589,undefined,1488206208354
903d185fccf839df,-0.15947295825238778,-0.8134933236078686,0.5693388277486984,0.5175890450672205,-0.8357243655386234,-2.00274617083631,2.0250103619766437,-0.2479180962120401,-0.20310202551603793,-0.2533484811144157,0.4285010565202583,-0.016155560917379144,-0.8261196524064172,-0.6697167323171502,-0.9549693314218709,-0.22918560664552484,-0.9361703443372082,-0.7282846083446108,-0.9736223423023431,-0.22321549335337942,-0.7927419603014706,-0.40766754468253563,-0.4638357371983829,-0.5148137449818267,undefined,1488206209855
903d185fccf839df,-0.12205059920056245,-0.8099711897771519,0.613999838692569,0.6038964697260448,-0.7991381417189329,-1.9824025958744873,2.113029973991747,0.3694574196819285,-0.18292003783898284,-0.34580517978159186,0.4628372303924482,0.062214963086162374,-0.6999150512477719,-0.6965659025356539,-0.9191797975612723,-0.23322684000131763,-0.9180767843229578,-0.7085194911717638,-0.9391420574456895,-0.23781322060574547,-0.7759221619948014,-0.392226903448122,-0.41914744489038663,-0.51089303558206,undefined,1488206211404
903d185fccf839df,-0.17610518684179627,-0.8322777889337569,0.795833301183315,0.723290408702442,-0.9569001636511607,-1.9722960262481408,2.0826662296797935,0.15205065497007686,-0.22511991070071768,-0.5728960606912078,0.3839293622849691,-0.01743775443858859,-0.8609347147950089,-0.6863817372012093,-0.9160218998966481,-0.3908342201268366,-0.9321777244111425,-0.673814959736606,-0.960440349778763,-0.22766564472008477,-0.7625465164900673,-0.4120073269095996,-0.44783664457056105,-0.5296329169392723,undefined,1488206212855
903d185fccf839df,-0.1262086563479146,-0.7677060514564272,1.2979481910608384,1.3404094630227275,-1.0048829410297972,-1.9511605097130484,2.0725835485348703,0.09531796635806924,-0.21522311738161723,-0.21752279734599753,0.2905790366121253,0.0019530053714660323,-0.8957497771836007,-0.6595325475565438,-0.9181271969094106,-0.4110403303763574,-0.904433161963283,-0.67248504334716,-0.9371129821752288,-0.2518874001879075,-0.7581400669147788,-0.43222379844258624,-0.472599352226754,-0.5341390716535724,undefined,1488206214352
903d185fccf839df,-0.4006395654379114,-0.8058621286322907,1.5754830211437518,1.5657099110506738,-1.0911285117916412,-1.9596133182004192,1.9974526200554439,-0.42963993444570026,-0.28188698312452,-0.281811300636865,0.09282675219517993,-0.06871381052641566,-0.852230949197861,-0.6882333936182371,-0.918127182184943,-0.3787105907212621,-0.9511245945129899,-0.6640558960157079,-0.9567390363172846,-0.25624516043767886,-0.7615896459953545,-0.4464233111934627,-0.5324326608369402,-0.5397458178618371,undefined,1488206215844
903d185fccf839df,-0.25094997395626634,-0.74187737692509,1.7681625403619896,2.0410200854516707,-0.855976905061903,-1.9213369302878363,2.030272585089616,-0.1031784586944926,-0.26207661880152866,0.029031189202106754,0.07833995871900686,-0.028434015925504645,-0.9523242535650625,-0.6271283886607949,-0.9444429862404999,-0.3888136317136618,-0.9559653725048539,-0.6252476178084398,-0.9613359403597995,-0.2196584544611714,-0.7414546657445453,-0.44471320063786607,-0.5336497092894124,-0.5359006294058445,undefined,1488206217338
903d185fccf839df,-0.23986186757054034,-0.7219188669889629,1.7126557268275766,1.9019755768140376,-0.7476685174754095,-1.9217818159809945,2.0561156888673873,0.08034409793532679,-0.21935585989677528,0.03651196878528066,0.17288877858292137,0.021752526010785842,-0.9305648395721926,-0.5836141941320704,-0.9949693635989554,-0.3867930433004869,-0.9348107887548166,-0.6565513591975316,-1.001672555094429,-0.1731243536417998,-0.7600337913125709,-0.4448470812822177,-0.5337835582085759,-0.5240991924397927,undefined,1488206218887
903d185fccf839df,-0.24263389416697184,-0.7072434920359282,1.6654426726375962,1.7086334880715512,-0.6961577461626173,-1.9302579177634254,2.0887805117337916,0.3148328922073855,-0.1972121712405198,0.13365693642029472,0.1527823624382386,0.019836327646433425,-0.8565828319964349,-0.5956500288343173,-0.9918114659343312,-0.35648396272037036,-0.928077268283273,-0.6552467726117421,-0.9941020054934159,-0.16610266115859998,-0.7582312902308822,-0.4402047979757833,-0.5459152477050411,-0.5201668636522105,undefined,1488206220370
903d185fccf839df,-0.15947295825238778,-0.6984382670641074,1.4446906777121509,1.524689031981516,-0.8149164012840238,-1.9541163158112866,2.1268311841402436,0.5120315668987739,-0.13855461554448142,0.16531388464762586,0.1831024021306742,0.010946463294297265,-0.7738970588235294,-0.6280542006808406,-0.996022001061986,-0.3120305371302575,-0.8822757776818009,-0.6839350074592544,-0.9995245341185867,-0.2187653457157339,-0.7820480730230708,-0.44604275016543204,-0.5299359906684247,-0.5133028748585583,undefined,1488206221839
903d185fccf839df,-0.152542891761309,-0.7653580060779379,1.2494588611108537,1.2700146160115642,-0.7673861929186485,-1.998197168298738,2.0376728745580337,-0.11317212961963882,-0.18354108226144797,0.24506890700230827,0.10688877376883807,0.08710584715856375,-0.7129706996434938,-0.6789750662053873,-0.9970746311627828,-0.275659592384091,-0.8884002919811027,-0.6930671118157304,-1.0002242149799232,-0.22393922253756063,-0.7881307747844871,-0.42472071661036626,-0.4992732806804715,-0.509663908241957,undefined,1488206223350
903d185fccf839df,-0.2343177798722676,-0.86808574766115,0.9470417364468448,0.9519688579349187,-0.8452077762655854,-2.024981089240835,2.0121690122845073,-0.3154615012794012,-0.24572862972739298,0.041412868329820995,0.11710648029029827,-0.025922402650678227,-0.6346368092691622,-0.6937883952462568,-0.9654956545165404,-0.35850452286882367,-0.9060883858709873,-0.7526727784326468,-0.9986989108939184,-0.26151143132468546,-0.8222263140941252,-0.4097976751010505,-0.49606959652933624,-0.50351288736897,undefined,1488206224850
903d185fccf839df,-0.07769807014142918,-0.80821017401078,0.9795801607662697,0.9516809930409816,-0.7112880099551029,-2.0112641995326235,2.023621823652795,-0.20160548220600413,-0.1962292109099053,0.07836390827626429,0.18516502851006103,0.07206833050505128,-0.6172292780748664,-0.706750080820873,-0.9391798062875807,-0.4514525084783167,-0.9158165290707153,-0.7664659307032397,-0.965086231448478,-0.3633413517744806,-0.839229106067369,-0.39299290366417033,-0.5470186406625835,-0.49964012405612973,undefined,1488206226343
903d185fccf839df,-0.04859175637348864,-0.8352128639243638,1.2047981043039326,1.0994008291634727,-0.6928766091174264,-2.0169801523639497,2.017560116717634,-0.22880090029404757,-0.19117302575261969,-0.06365071593063207,0.18054085125906638,-0.05753195263518762,-0.8217677696078431,-0.7104534130810904,-0.9623377347652148,-0.4292258380803426,-0.9141826758952483,-0.7651740102816383,-0.9653031326590599,-0.32927999047421946,-0.8322072065755244,-0.379348910387545,-0.5620479338592909,-0.5043896417522532,undefined,1488206228169
903d185fccf839df,-0.14699887307385573,-0.8222985193516972,1.3107084072913873,1.2824887567386756,-0.6794229167109324,-2.013679620242293,2.015650879403027,-0.23625622926183806,-0.21272453683045758,-0.13596832081361646,0.16380519645633349,-0.07598109667299906,-0.6868594028520499,-0.7104534130810904,-0.9518114263950128,-0.43326702903905306,-0.9245174977343429,-0.7700440440526027,-0.9726777713964823,-0.3210880174833327,-0.8373154904250396,-0.3693646244863538,-0.5600112120770785,-0.4990507189951177,undefined,1488206229370
903d185fccf839df,-0.2648101069384239,-0.8123192497696374,1.236060761137252,1.2121198768318768,-0.622635586350326,-2.019975554196541,1.9827388529159962,-0.4572244087673286,-0.19659725934733835,-0.2578514730035502,0.16213856860355402,0.02585744651041794,-0.691211285650624,-0.6882334195197861,-0.940232458475079,-0.3504220561572381,-0.9097785657192808,-0.7398675672581935,-0.9615178581277041,-0.257369250051589,-0.8089058381263561,-0.3588889011331764,-0.570084538237743,-0.49349283662877164,undefined,1488206230834
903d185fccf839df,-0.30361847928846497,-0.8352128931523561,1.0925082014751022,1.144960705180307,-0.647784109747855,-2.0298678330555724,1.9895631892378314,-0.42792477144862795,-0.22314581836728445,-0.13964685379941233,0.11797010339933245,-0.06875390088615617,-0.7695451760249554,-0.6826784114163792,-0.9749693401481794,-0.32617483974317146,-0.919345137847289,-0.7587524058523062,-0.9715932662121963,-0.2233848822440163,-0.8146582690732663,-0.3607149569438071,-0.5891099759231102,-0.49452010821771036,undefined,1488206232340
903d185fccf839df,-0.38400738860661754,-0.8093841747790305,1.0861280933598279,1.1204968947912057,-0.7314068287471451,-2.0209445176133163,1.9734030390973136,-0.5626347467075761,-0.22354468158779986,-0.06688826714467477,0.16315121760596413,0.03955078876786587,-0.8391753008021391,-0.6308317014948505,-0.980232505376631,-0.2433298527289957,-0.8946490730686414,-0.7142444764639923,-0.9679759147870912,-0.2015344856382838,-0.7866868761153736,-0.3728489726270106,-0.6234031644842437,-0.497007057240425,undefined,1488206233844
903d185fccf839df,-0.4075695801708756,-0.8105581901612771,0.9642681554265605,1.0872217773132322,-0.7539016442512554,-2.002792756820281,1.965589885150408,-0.5957951378228015,-0.1897614781321108,-0.014111561648637834,0.2181584222136867,-0.03881607427728502,-0.8565828319964349,-0.6132408522138093,-1.034969425224975,-0.22918562077788562,-0.8546874173805489,-0.7020345608325139,-0.989666027942021,-0.2046141760603099,-0.7831052773456431,-0.38583277117767156,-0.6183856653760905,-0.49994152405326536,undefined,1488206235342
903d185fccf839df,-0.19966744741687378,-0.7594878414827279,0.9642681554265605,1.0376511110434052,-0.7919278693853026,-2.0072066650570304,2.0376518371778465,-0.12552663834975952,-0.2103040706687185,-0.12112637334568822,0.21487749080825885,-0.011288078878872154,-0.9349167223707665,-0.5873175134415132,-1.0160220171505283,-0.15846440449289206,-0.8825162592103096,-0.7002043402592377,-0.9833898890138357,-0.17466419856337323,-0.7743186715257113,-0.397210443587422,-0.6240405728735344,-0.49379792445071014,undefined,1488206236842
903d185fccf839df,-0.18303528783828477,-0.7970568890464736,0.7313938280136189,0.862848025001336,-0.820871821143629,-2.0163046729481864,2.055863241352661,-0.019798873179899912,-0.25902561355208187,-0.10076688908316347,0.16609445288556798,-0.06566323397687952,-0.9175091911764707,-0.6326833708626528,-0.9897061836460361,-0.2695977988798449,-0.9126277184261843,-0.7268407006798018,-0.9890013308781513,-0.24486571086835032,-0.7969539271304247,-0.41051476279187143,-0.6411099071772157,-0.5152871823458871,undefined,1488206238344
903d185fccf839df,0.013778842046220211,-0.7589008557125988,1.0937844772351066,0.97410506942276,-0.6884949010967572,-1.9849577728127568,2.049130919345204,-0.002480821898734243,-0.23746506182839267,0.16318362657263893,0.14068328000331023,0.05038181111484473,-0.8696384803921569,-0.6113892022721689,-0.9718114498457889,-0.19079408761854424,-0.8846544414762573,-0.689501664768972,-0.9746298817167142,-0.19793124762682793,-0.7646048197846207,-0.41636173739780125,-0.6327543110360556,-0.5011297109356643,undefined,1488206239838
903d185fccf839df,-0.034731657896740854,-0.6737835640730283,1.0759196662384392,1.0662292169254357,-0.6611143743340293,-1.985055601183368,2.099347069383373,0.3459755729448509,-0.17137741955165295,0.16139511382755078,0.23597224467410238,-0.043735307135260554,-0.8739903631907309,-0.6706425767141323,-1.0033904264920313,-0.26959778474748414,-0.9059367439337982,-0.728284612469427,-0.9875459943014412,-0.25609117723521074,-0.8011863809303862,-0.4202900324986556,-0.6106532665726241,-0.484521752249133,undefined,1488206241343
903d185fccf839df,0.10248379664825756,-0.6162560942571322,1.009566541839585,1.2588794694506191,-0.5880859255769586,-1.9836301073673488,2.0596843389764463,0.10804805523059585,-0.08087364259451174,0.24197001245119346,0.26625219502529746,-0.04224026524592643,-0.7826008244206774,-0.7150825832629025,-1.002337781666767,-0.21908259391784676,-0.9763251539707964,-0.7526601111943455,-0.986293565741754,-0.20136510044978215,-0.8031477279261875,-0.4227508201111737,-0.616077919095845,-0.48222356612208994,undefined,1488206242846
903d185fccf839df,0.02209488733010499,-0.7888386498447819,1.0963360122073176,1.2986202080923686,-0.6710400685012462,-2.004153033367951,2.038695873866762,-0.08565852314917839,-0.10872805112311507,0.06455772571376199,0.23784286665154972,-0.04763620157179914,-0.6999150512477719,-0.6558292088209391,-1.0002325509141086,-0.31203056539497903,-0.9516950103539876,-0.7181645662139949,-0.9795976171210677,-0.1667647959013427,-0.779010005758693,-0.42902837391608495,-0.6066930880710871,-0.5091653993198475,undefined,1488206244338
903d185fccf839df,-0.07076800365035041,-0.7624229164733348,1.0031866878612599,1.1336811886423175,-0.6857589020215705,-1.9686926950550023,2.045244087110045,-0.0141736064839376,-0.1275403057016481,0.19477479762487243,0.19236400630124936,-0.009290961298549227,-0.843527183600713,-0.6493483822220992,-1.0065483315188894,-0.3039480986833935,-0.9820693672723032,-0.732578346355939,-0.9764840365562142,-0.17534173002838666,-0.7804128537324446,-0.4476373046920894,-0.6156569893047298,-0.529625613900581,undefined,1488206245850
903d185fccf839df,-0.17749109662378282,-0.6620432933385928,1.255839477500027,1.2822899153103853,-0.6897703239345907,-1.9374133401020377,2.011721939934317,-0.19631513072427195,-0.17231808092464157,0.1307049550589612,0.1390513877047735,0.003092590179407776,-0.8000083556149733,-0.6576808652379669,-1.0065483167944218,-0.28778323592202626,-0.9795526450022353,-0.7468401350246624,-0.9823823487797786,-0.2095416782396392,-0.7958509503101572,-0.4506374626318803,-0.6313688242361142,-0.5398912992759728,undefined,1488206247345
903d185fccf839df,-0.24679186505079964,-0.5916013912660532,0.7990232281724775,0.7578375560717752,-0.7897575862599121,-1.9196924884370057,1.928543806571004,-0.7483050948263107,-0.14531839909245883,0.09427414972330068,0.10366032137993919,-0.004024983260089568,-0.9479723707664884,-0.6363866901720957,-1.0339168172108797,-0.32011300384184305,-0.9799294090259656,-0.761108257617053,-0.9836977498485341,-0.23439476931110645,-0.8087940624146506,-0.4519131318806516,-0.616722399297454,-0.5394842335990216,undefined,1488206248867
903d185fccf839df,-0.30084648719744317,-0.6755446821373733,0.7467060874902776,0.6926882421907803,-0.8701711696476858,-1.9156489294266195,1.9690927828402236,-0.5039407464130575,-0.24797232080434575,0.10098478094466388,0.044518516368235915,-0.0603079088054344,-0.9523242535650625,-0.654903364423957,-1.0033904191297975,-0.38679302916812613,-0.9552183265509213,-0.7436166671634865,-0.9834458644428766,-0.2768174861252189,-0.8082386135898786,-0.460914969536455,-0.603995768523103,-0.5440816701413136,undefined,1488206251104
903d185fccf839df,-0.19550930400599734,-0.6567601437415042,0.9157790796135252,0.9025657927161368,-0.875252302724361,-1.896716872897154,1.9620869801279401,-0.5293503257645635,-0.2334465200502566,-0.03307663726072121,0.008168359903608695,-0.04414821376429297,-0.7608414104278075,-0.6724942331311601,-1.021285219190149,-0.42720520727008543,-0.9820503314789502,-0.7504499139339857,-0.9884485842625202,-0.34355434852787686,-0.8254379247940347,-0.46176858615811645,-0.6031028675867767,-0.5418431183326067,undefined,1488206251911
903d185fccf839df,-0.30500456159750017,-0.6497159783780437,0.8845164227802057,0.89036481954285,-1.0020852361645656,-1.9256460250466594,2.005849592466322,-0.3118706893399113,-0.3028519211780166,-0.11521957295432309,0.0026280853407932786,-0.015714047824214324,-0.6433405748663101,-0.7113792380519106,-1.0265483549696655,-0.40497849447502904,-1.0321253266986243,-0.7633754517802227,-0.9988318510285055,-0.41096873946076506,-0.8462751450502131,-0.47634211354559164,-0.5850168033045098,-0.537286908938899,undefined,1488206253346
903d185fccf839df,-0.5309249362391262,-0.6467808741594444,0.8455978903455063,0.9435875882042671,-0.9995240987322813,-1.9420182486302255,2.005544533693257,-0.33036642186779125,-0.3221032326563932,-0.18451479761167353,0.08452091013622498,0.08165311448841882,-0.6346368092691622,-0.7141567388659205,-1.0465483710582077,-0.3665869471833269,-1.0232439280078676,-0.75581391715676,-1.0251748434837131,-0.45004999423229947,-0.8628847150068687,-0.45968763758916587,-0.546702575156602,-0.513185821351175,undefined,1488206254839
903d185fccf839df,-0.42697373184048637,-0.6972642516818608,0.7894529389310911,0.760935626299984,-0.8988579788780241,-1.9730949574386039,2.0106489869300415,-0.3057927640561558,-0.2878007056475359,-0.2946979313700643,0.1686070519820553,0.0507462274394695,-0.3822276069518717,-0.733599257514764,-1.0644431343073901,-0.4696379172557765,-1.0393784360228115,-0.7403298710448465,-1.0485162044765524,-0.5514333593737454,-0.8793603806328275,-0.4454290754940434,-0.5650263395627748,-0.5400467689532968,undefined,1488206256334
903d185fccf839df,-0.2925304074081487,-0.7594878999387125,0.4953295736115148,0.4892025417262824,-0.7167805687707587,-1.9980713893257045,1.9612401881264938,-0.6396522853908609,-0.2633275714909879,-0.3870680525130008,0.15777041736671593,-0.0019702289530220208,-0.3822276069518717,-0.7604484277332677,-1.0865484253219935,-0.45347306862677,-1.0647670034917525,-0.7476127555873008,-1.0696325790967751,-0.5531117877061096,-0.8899476026648231,-0.4551694415246836,-0.5461224641509602,-0.5361067315431941,undefined,1488206257830
903d185fccf839df,-0.20243947401330528,-0.7741632602777511,0.2318307272452558,0.27383457635321745,-0.546295137035277,-2.012761899978678,1.9807612302361166,-0.4882216794183438,-0.28865771892407044,-0.5638447293903348,0.18603245547552902,-0.23703595840708427,0.005089962121212133,-0.7410059349859732,-1.0802326226305112,-0.4615555212059948,-1.0419268385972291,-0.7637237642250726,-1.0629436277885644,-0.5330322153557197,-0.8911323624722157,-0.4546490066308346,-0.5811592910511575,-0.5365103503756791,undefined,1488206259342
903d185fccf839df,-0.45053606142638336,-0.8346258635402386,0.09529615944143313,0.1632402254673992,-0.8101644096643588,-2.030098427687854,1.9378848716164399,-0.8433124871825837,-0.2736426286776614,-0.6417220126399258,0.1619438348540329,-0.3273117544684518,0.905929701426025,-0.759522615713222,-1.0686536731161618,-0.0372278701870142,-0.9481889519845565,-0.7799867633782218,-1.070577149042257,-0.1048784427911294,-0.8139981086760604,-0.4681045417589474,-0.5636787016102183,-0.5411673386948251,undefined,1488206260838
903d185fccf839df,-0.6237878617249913,-0.7800334394869572,0.22608875700998352,0.2035283026862194,-1.0578028516985634,-2.003284225985832,1.957860871296556,-0.7478396288871658,-0.28294862738769194,-0.7367928015684305,0.1872665717804036,-0.3187856455312016,0.7013912098930482,-0.800259315903324,-1.0781273624289176,-0.057433966304174223,-0.9554447454953644,-0.811594485853435,-1.0625797942652686,0.11331752951930846,-0.7837926111861481,-0.4735935197662973,-0.5757502452067617,-0.5308321627828548,undefined,1488206262341
903d185fccf839df,-0.7499152098842637,-0.7911867244512636,0.4449265924323719,0.458684064218208,-1.1399032840232453,-2.000365689702959,1.968821917273555,-0.6953302166786784,-0.27583452644321355,-0.6732954886082015,0.25762377183372903,-0.27266089053875564,-0.16898534982174687,-0.8058143175313437,-1.0760220911839733,0.05572005889303579,-0.9484007415671127,-0.8393074466327157,-1.0693107264142712,0.1770055002486319,-0.7879114097736261,-0.47993134521297537,-0.529161836492224,-0.5154286149202487,undefined,1488206263840
903d185fccf839df,-0.5738913829892243,-0.7859035894681711,0.5438183952876006,0.5495905070043032,-1.0508600014583627,-2.0019635479713114,2.033872796506565,-0.24003233716503514,-0.28908511264420717,-0.7115519475874962,0.32005191201455824,-0.20540640064358534,-0.3909313725490196,-0.7919268005105199,-1.0654957680893038,0.029452098609825828,-0.9247182737523234,-0.84438013428023,-1.0594102391950506,0.23113103576346972,-0.7739541173657052,-0.4814924470083648,-0.5145537023972904,-0.5373519408314591,undefined,1488206265348
903d185fccf839df,-0.4630101466049154,-0.8252336089563003,0.7116153657877934,0.7832770675043227,-1.020650908610212,-2.033177682629711,2.0258676726681832,-0.30058615821400847,-0.2969225587650375,-0.6314700428104691,0.32712579310375745,-0.1901198104901321,0.08342385249554368,-0.8002593094279367,-1.071811570780786,0.22545112495357233,-0.8722279389578941,-0.8503394350834724,-1.0624538523423652,0.23625871789514857,-0.7765926219569493,-0.48309470133907234,-0.4997051406915331,-0.5175919662619025,undefined,1488206266829
903d185fccf839df,-0.37707721859930954,-0.7506826603528955,0.9534218445621192,0.9928818518668193,-1.0846690869136237,-2.014841911022899,1.976303712841476,-0.6248491140325642,-0.2792311936529863,-0.45553503631266545,0.3666695916783481,-0.1649184905594806,-0.2647267713903743,-0.7863717988825002,-1.0918115905504453,-0.2655565796564129,-0.971521960079891,-0.8586419241614832,-1.083262368164871,-0.14286640516274166,-0.8687057177071295,-0.4746077275179825,-0.5528194230933072,-0.5019648677941857,undefined,1488206268343
903d185fccf839df,-0.31747862952332734,-0.6690874440880572,1.1052686718426006,1.1062326335698145,-1.092774219880901,-1.9827682875932506,2.007466915311334,-0.38085034678800816,-0.1646603248125544,-0.4666649399443024,0.41342477550897555,-0.2226118821935701,-0.6476924576648841,-0.7493384503787773,-1.0960221367214507,-0.0129805831111437,-0.7082564541637784,-0.8106002129154146,-1.0852214749901263,0.14080375651219088,-0.7807187754004566,-0.45369616537971985,-0.5423787257544053,-0.5084928039134614,undefined,1488206269868
903d185fccf839df,-0.2925304074081487,-0.6426717691725947,0.684181027960588,0.6479418580079628,-1.096446211833142,-1.968897667818049,1.9760617677802552,-0.5813983428385078,-0.1336517441939387,-0.39909463835516734,0.42611603191266706,-0.2094875989014394,0.0660163213012478,-0.7511901197465797,-1.1012852835443179,0.2598014954189248,-0.6775242354853493,-0.806534462974869,-1.0792392015804604,0.19771641069319368,-0.7614422396624917,-0.4568306106268973,-0.5781305009050544,-0.4926711324221515,undefined,1488206271354
903d185fccf839df,-0.37291921321007204,-0.585144240900714,0.6057058252111869,0.5775095181770373,-1.115639322574942,-1.9676049402745737,2.051687093549477,-0.08408489612403543,-0.1630292593738923,-0.5307476665060791,0.41244694492886247,-0.24364815418180696,0.09647950089126561,-0.7734101197832712,-1.1149695116658456,0.3103166721162014,-0.6518929947411592,-0.839662090626003,-1.0849975769136144,0.11587367225766827,-0.79631065325774,-0.4624451314171304,-0.5515479262617786,-0.476267546486675,undefined,1488206272849
903d185fccf839df,-0.4643962289139506,-0.690807042860537,0.9993588771290447,0.9543877029027479,-1.1394918516685415,-1.9593827240895703,1.9640146239717486,-0.6811566582495606,-0.27331070654495937,-0.38446613954714287,0.4064674422689759,-0.35161321304540677,0.1835171568627451,-0.7132309009443257,-1.1023379099639978,0.2719250824274169,-0.6616183096654406,-0.7821272965417638,-1.0912947065863996,0.06090122099128976,-0.7793588564973407,-0.4588004805103063,-0.5895334535934675,-0.490350167161478,undefined,1488206274336
903d185fccf839df,-0.5531010799997588,-0.678479742513984,1.4178939694910486,1.5116547139404692,-1.1391935676727432,-1.93988233420029,2.0451546648883454,-0.11359537779647996,-0.27563635003239634,-0.3596037293328355,0.4016925629676161,-0.26318721386079014,0.8232439282531195,-0.6761975524406029,-1.0781273734722683,0.3527494810284178,-0.6890790793527533,-0.7341172505677488,-1.059291293709883,0.06917018542859395,-0.7363871310653292,-0.4621764984110031,-0.6427000850042084,-0.5247209184931436,undefined,1488206275866
903d185fccf839df,-0.5974535400480726,-0.6461938883893154,1.6616143536314822,1.694907437867658,-1.0479080113556107,-1.9345833150408211,2.0558053835814167,0.0033700003210761003,-0.1701501520738363,-0.22945950519259628,0.22619805815254182,-0.22817599771158562,-0.3125974821746881,-0.66879090734633,-1.0497062797661827,-0.4069991111529254,-0.8592285867034982,-0.7091337890227972,-1.0304364458685635,-0.392767778060626,-0.8222683190271667,-0.47006788806834315,-0.572987293808708,-0.5093246705084192,undefined,1488206277395
903d185fccf839df,-0.5752773272766205,-0.628583379989689,1.2462691882586407,1.30635474450444,-1.032212036374569,-1.9426378246285627,1.9425212313594356,-0.7302462328254623,-0.1214159465834219,-0.23986149660407063,0.07240439333931546,-0.13000497568487732,-0.8130640040106952,-0.5465808262021857,-1.026548369694133,-0.5585447119065591,-0.8571287670291954,-0.6248676408389864,-0.9934652978262585,-0.44818678250830885,-0.7819830552499634,-0.4515377558098894,-0.5569725836394621,-0.5383193112412967,undefined,1488206278837
903d185fccf839df,-0.539240981523011,-0.7001992828304792,1.1295128285436942,1.1388066567252355,-0.9505950316766602,-1.9249006678264657,1.923026473666666,-0.8244604115931047,-0.18039358731079694,-0.3905589705258434,0.0020515448541896975,-0.1822230336309875,-0.41704266934046347,-0.5697266447343102,-0.9823377729404584,-0.5969362733306219,-0.8762351760267865,-0.5993902088456251,-0.9762671363855329,-0.44205820240537,-0.7664764708533561,-0.44255839253503176,-0.5599516972701997,-0.5389502977161191,undefined,1488206280345
903d185fccf839df,-0.4546940668156209,-0.7459864819119397,1.0063768689873718,0.9621158417789918,-0.9365859112299846,-1.916179996031715,1.9201100148165908,-0.8454334610189218,-0.2711193231414966,-0.257993600771871,0.021176818399796554,-0.18746185630711376,0.28361046122994654,-0.5817624729611699,-0.96233776421415,-0.6029980950995896,-0.8988026736349887,-0.5979272985793144,-0.9636658793971652,-0.3989733515889418,-0.7533844661129361,-0.45619005670655394,-0.5462240865814258,-0.5365643120400743,undefined,1488206281848
903d185fccf839df,-0.359059149238734,-0.7618359453172019,0.941299512074623,0.9012069776524062,-0.9069219607069725,-1.928969848906325,1.946586897039014,-0.6854929177667101,-0.23482397305890765,-0.11553505835197952,0.03537418302484822,-0.12616399382715301,-0.7042669340463459,-0.5845400126275033,-0.9823377729404584,-0.6252247089681207,-0.8897636734224661,-0.615716537308205,-0.9579774722706509,-0.42881553739645334,-0.7729366546942121,-0.43979251961349214,-0.5158783158461642,-0.525021129593454,undefined,1488206283345
903d185fccf839df,-0.2869862852044662,-0.7806204252570863,1.0248793095901425,1.133702616372896,-0.9285424963899657,-1.9619262541861882,1.9545946553947073,-0.6696265614968598,-0.2253628974228453,-0.019895059614299302,0.036517105275519414,0.1461480400745143,-0.8696384803921569,-0.5521358019286563,-0.986548285981412,-0.6009775208187755,-0.8749259049483238,-0.6090796114373583,-0.9648903213984567,-0.4624149465987831,-0.7753509875995344,-0.43957946063984216,-0.5447144361704592,-0.5316631270796283,undefined,1488206284840
903d185fccf839df,-0.23431771086144812,-0.7847295156299399,1.149291544906469,1.1005862870366037,-0.7694639057809557,-1.9872637184678166,1.973952655974715,-0.5165033141687493,-0.22073736307955813,-0.18131750160600563,0.024303803126838792,-0.010972582572143738,-0.44315396613190733,-0.6215733611312262,-1.0128640973992027,-0.4756997955541872,-0.8792534084588312,-0.6465326397807145,-0.9739581873403688,-0.36888478837915945,-0.7832640234432602,-0.4547483239692354,-0.5363581270760862,-0.529106865455985,undefined,1488206286361
903d185fccf839df,-0.138682689768332,-0.761248886477092,0.9897883337507088,1.0065806779639284,-0.6357292742811506,-1.9983555556549695,1.9888163166739812,-0.3776635738105952,-0.15248430034889263,-0.22940725522891345,0.048058779999203084,0.03270644385436962,-0.4605614973262032,-0.6808267420485768,-1.0086535769960154,-0.45953487626337686,-0.8688033093554819,-0.6644358717892416,-0.9859157377403162,-0.30642869224894115,-0.7809664210494208,-0.4432426363186478,-0.5332781093384666,-0.5263948366752048,undefined,1488206287842
903d185fccf839df,-0.14145475087017326,-0.7859035602401788,1.093146085218155,1.099133234471379,-0.5603762564769915,-2.017918836079976,1.9847138222231722,-0.3930619670567187,-0.15252970000302746,-0.14043006288315035,0.07197994147947934,0.003909687870023794,-0.6955631684491979,-0.5975016917267323,-1.0012851736526716,-0.4635760813544481,-0.8828563740646644,-0.6762341463308393,-0.9771697250130924,-0.323136005867795,-0.7895397220881846,-0.42083715371486163,-0.5707878138486584,-0.5299189235597989,undefined,1488206289346
903d185fccf839df,-0.10264637852013218,-0.8363869085346027,1.1186667718162022,1.1820129506440904,-0.661865231848262,-2.035583785852468,2.028279190397846,-0.17437496561812996,-0.17601249317188564,-0.07679864453155838,0.07553588383018808,-0.02191635586373004,-0.7826008244206774,-0.5567649721104685,-0.9876009455311439,-0.3787106048536229,-0.8942968414558701,-0.7006919748849039,-0.9735173898149887,-0.26188098934397475,-0.7885825187458808,-0.4088232827622925,-0.5690273532786466,-0.5072617198269871,undefined,1488206290849
903d185fccf839df,0.10109778335004181,-0.8099712336191404,1.2366988990172543,1.2165599636019055,-0.6931748912967516,-2.014299198717778,2.0387878976088367,-0.09169437155283859,-0.18080032952638853,-0.025688904369896567,0.06862569261170415,-0.000058499993842337776,-0.7129706996434938,-0.5826883367843138,-1.019179900090685,-0.36052513954672005,-0.8507141430315039,-0.7263087323367876,-0.9758263371657268,-0.19782345685283992,-0.790857027105581,-0.3948785861105951,-0.5481503166286856,-0.5000322606803573,undefined,1488206292383
903d185fccf839df,0.15515230198045615,-0.7635969610835737,1.2609433098552971,1.2693304062880215,-0.663994367384248,-1.993573628049455,2.0597448176472186,0.0713983777641336,-0.19890424582151098,0.007079457712092627,0.055259729294431396,-0.01093602303398918,-0.6433405748663101,-0.6512000710160634,-1.0118114893851071,-0.3605250971496377,-0.912067214616745,-0.7605572920431032,-0.9735383805718231,-0.24525067061788947,-0.8134549550603313,-0.38996694513603686,-0.5634020745448469,-0.5050513214076401,undefined,1488206293859
903d185fccf839df,-0.013941492928914305,-0.7465735261380535,0.8685662795604943,0.9662806940533679,-0.6884434643374097,-1.9795958637373023,2.033736033108672,-0.09905395993362738,-0.1722850610485691,-0.07538415278438843,0.06694093005361168,0.054950230516617266,-0.7564895276292335,-0.6002791666391931,-1.0128641342103717,-0.4009372893839578,-0.9068758202640094,-0.7486766899590026,-0.9612239929456233,-0.24435756101086425,-0.8048691309221863,-0.3912998502690221,-0.5811751956874662,-0.52495980430527,undefined,1488206295344
903d185fccf839df,0.047043195708808,-0.8193634443610902,0.837941760607177,0.9055278289804435,-0.5353511518494252,-2.004122752428628,1.9893291278256315,-0.3609850372038952,-0.15706166243568384,-0.11574829009738243,0.10536057093290736,-0.07071439843217651,-0.7651932932263815,-0.5734299964206894,-1.03496939577604,-0.2938451283527977,-0.8805012071201381,-0.7431733624957723,-0.9522540807288464,-0.1404796502111094,-0.7761765833848873,-0.3786309958759627,-0.5634258662489929,-0.5090535680856729,undefined,1488206296832
903d185fccf839df,-0.18857930652573804,-0.8287556843310324,0.7837109686958188,0.9400980244201554,-0.6616698013919547,-1.9918825994195921,1.958555145696089,-0.5835426839304123,-0.16700525551743814,-0.11171961706083186,0.09814165021586274,-0.00694889997337305,-0.8826941287878788,-0.6067600191395821,-1.0139167643111684,-0.3544633743071955,-0.9438890368363771,-0.7301844955504979,-0.9512465394915912,-0.1302858821392904,-0.768782527775597,-0.396141104717948,-0.5691400112870337,-0.5430493285974026,undefined,1488206298338
903d185fccf839df,-0.004239330830584569,-0.8498882534913946,1.0261553312131975,1.1387197990081206,-0.6894823258078758,-1.9935456763978232,2.0063544974472327,-0.27989069165991776,-0.19459245522580676,0.129423043099714,0.11060854472063983,-0.049290639794089576,-0.7042669340463459,-0.6345350402304551,-0.9939167482226262,-0.26959778474748414,-0.9564206112479174,-0.7179619129852349,-0.9517153259916062,-0.14238905964080537,-0.7676425379856141,-0.39266744006262144,-0.5539918163566806,-0.534823507002053,undefined,1488206299876
903d185fccf839df,-0.09433033323624741,-0.7882516348466605,1.135893190795918,1.1646793892770284,-0.7674273367130643,-1.9795120101650434,2.0020731789796997,-0.3223546105954779,-0.2077772391429896,0.1946481479247439,0.08358992344363525,-0.06857962195721097,-0.8826941287878788,-0.5845400126275033,-0.939179798925347,-0.1988765119330475,-0.9404167920136909,-0.6865821770139278,-0.9407513232071608,-0.10999073063721543,-0.7428086964381716,-0.401401710332504,-0.5234145608113022,-0.5148467335106685,undefined,1488206301345
903d185fccf839df,-0.13175272679348246,-0.7477475707482925,1.051037625794293,1.1012165911777607,-0.7260068316263406,-1.9840214177103193,2.041075835526144,-0.06419690501438614,-0.21972252023338815,0.1987962869487738,0.10424898108865858,-0.08702776791253367,-0.847879066399287,-0.5715783335282744,-0.9128640095942576,-0.11805219812621123,-0.9404905471682814,-0.6747839031035099,-0.9422766274705603,-0.09294465315711578,-0.7349015418690602,-0.4104475665448544,-0.5437818135241989,-0.5289526267882052,undefined,1488206302849
903d185fccf839df,-0.13036664448444724,-0.7189838066123521,0.8794123362879862,0.7995685665745976,-0.8558534757952064,-1.9951365472126363,2.005315738173115,-0.33513061784131115,-0.11712551430737268,0.03061278900683071,0.12061845100272639,-0.024773152173196006,-0.852230949197861,-0.5613941811446043,-0.9223376878636628,-0.1685673889558486,-0.9324713576256385,-0.6360389540838657,-0.9555495782052158,-0.16467060855918034,-0.7284842292901673,-0.4037533221286005,-0.5889056271778391,-0.5516403142364392,undefined,1488206304348
903d185fccf839df,-0.24540581724717414,-0.8146673097621229,0.7454298117302732,0.7584503041782874,-0.977409843879954,-2.011443550081229,1.9795226064225226,-0.5545868053981639,-0.13855163184330258,0.0804696208939175,0.10628601427475108,-0.038091577237617476,-0.8261196524064172,-0.5530616722271875,-0.883390285787375,-0.1887734568082871,-0.8790081509805342,-0.6503640721782898,-0.9624484343902623,-0.23728967451063188,-0.7495560180775808,-0.39300396892387646,-0.5848229215391711,-0.49929776162307804,undefined,1488206305855
903d185fccf839df,-0.2745121310151147,-0.8516492838717626,1.0063766148504225,0.9702202969154918,-0.8946511238219966,-2.00564607457358,1.9727613759561191,-0.5726034388411996,-0.14212311741736633,-0.0009188656870786105,0.1072041751062288,0.031013321142832777,-0.6607481060606061,-0.5530616722271875,-0.9170745152729772,-0.1261346083083537,-0.8571891285202214,-0.6546958061519258,-0.9647853695044571,-0.2314074692790498,-0.7494814962053857,-0.39882559943552137,-0.5902210945013354,-0.5159242784507868,undefined,1488206307364
903d185fccf839df,-0.21214156710081555,-0.81408033860599,1.1518433340156293,1.122922805155676,-0.8628888875742178,-1.99685552642816,2.0098600448434256,-0.3121124377664806,-0.20164152217837195,0.0003468116226018709,0.08621129112246136,-0.07677033145361223,-0.7216744652406417,-0.580836680367286,-0.950758796294216,-0.10390795204274036,-0.8369326845560027,-0.6759554978554639,-0.9802553184139612,-0.2530114879574811,-0.7709677674915014,-0.3897171227833204,-0.5964912415150023,-0.5039354544382315,undefined,1488206308845
903d185fccf839df,-0.22600170008297307,-0.8158413836003542,1.0267929608193007,1.1181451863582177,-0.8530146185693276,-1.9978291485761597,2.0243634240394557,-0.2167844418284438,-0.19509626159042623,-0.07181239390092385,0.09292168790746348,-0.06302474573656917,-0.7086188168449198,-0.6400900289077003,-0.9570745842612307,-0.12613462244071447,-0.8357517843529426,-0.688298404634231,-0.9791428253683453,-0.298575488638847,-0.7826928134456858,-0.39410746378155853,-0.598016326174603,-0.5079824748707592,undefined,1488206311090
903d185fccf839df,-0.13452471888450424,-0.8181894289788436,1.013394860845699,1.0565282086288543,-0.7477919400703683,-2.0056996479553675,2.0188092728391047,-0.23463265272174139,-0.20618429214396017,0.026713209833030098,0.06926172146109459,-0.04264764934497381,-0.6607481060606061,-0.6012050045607878,-0.9412850922569926,-0.07157819825528432,-0.8271540645409421,-0.687836100233008,-0.986650403757107,-0.23809039658169742,-0.7739077188166354,-0.3888936392744469,-0.5729556050249401,-0.4936002009852086,undefined,1488206311837
903d185fccf839df,-0.13036664448444724,-0.8428440881279342,0.9598019526773937,1.0533138173591292,-0.7516696509226704,-2.0161346394157986,2.0404762387651494,-0.10109115347842697,-0.25796747267205006,0.04725160069752355,0.09380489129120007,-0.055708806614064445,-0.6563962232620321,-0.6697167258417629,-0.9391798430987497,-0.1604849081119023,-0.8917786886552771,-0.7197794669956832,-0.9772117061169179,-0.2560295832784157,-0.7949465175773457,-0.41652054038027453,-0.542092132641521,-0.48885780923697936,undefined,1488206313341
903d185fccf839df,-0.17471913903817077,-0.7800333810309725,0.980218298646272,1.0475834583405397,-0.7171405683351489,-1.9904594351087173,2.032644675670238,-0.11829709304709957,-0.24945394458151596,-0.19108809865278847,0.0718435406070043,-0.04489789000243735,-0.7260263480392157,-0.6882333871428498,-0.9412851033003433,-0.11401102129986153,-0.9465120935992154,-0.7120659409820499,-0.9646384367451978,-0.14591530130556327,-0.7730774126933289,-0.42186704575188677,-0.4993280717540956,-0.48308733949413435,undefined,1488206314842
903d185fccf839df,0.06783339518204429,-0.7336591961793829,1.263495353101407,1.2814558314515492,-0.6259990037104541,-1.9755383288123072,2.049004699254167,0.029930399545239555,-0.1792268533736778,0.1258370808488784,0.10924556563573008,-0.020021651650742604,-0.8739903631907309,-0.748412599506408,-0.9412851033003433,-0.16856743135293092,-0.9780880160828387,-0.7333066343860758,-0.976917839521796,-0.13076323279036678,-0.7840325790240047,-0.4431190766772672,-0.5152167204800205,-0.5075475298753649,undefined,1488206316346
903d185fccf839df,0.09416778586978251,-0.7330721665672654,1.4064097748835547,1.4353809729922054,-0.6888960406325676,-1.9521201572946456,2.0069988108185655,-0.2357448338482648,-0.1444288069937986,0.22631675330911502,0.07306721968967603,0.09700516492117497,-0.7695451760249554,-0.7511901003204179,-0.9276008457298806,-0.14027891092126765,-0.9680718828658876,-0.7291268916697304,-0.9695501972098753,-0.055095271019189256,-0.7619039082464822,-0.44240570594787626,-0.46556957306111346,-0.5210897066520815,undefined,1488206317856
903d185fccf839df,0.07476346167312305,-0.7665320214601845,1.0637975878878925,1.1414881163787807,-0.7049725874262988,-1.9640202393890882,1.9878669806690845,-0.3702981386508933,-0.14559938010299003,0.3280011109413649,0.058778137684479086,0.08305978654755322,-0.5388953877005348,-0.7493384244772283,-0.942337740763374,-0.08774310341373388,-0.959217119055375,-0.7203494323142151,-0.9671293008117057,-0.05029095661882714,-0.7577532445414129,-0.4397571717553203,-0.458919253745645,-0.5304248323435781,undefined,1488206319344
903d185fccf839df,-0.2717401044186832,-0.8134932797658802,1.040191569066801,0.9974764984999801,-0.7980375800518785,-1.985162744254779,1.9975078495945067,-0.33889428214736145,-0.17675710907567083,0.24073856000803273,-0.02458529809375704,0.058487523528874784,-0.8870460115864528,-0.7410059349859732,-0.9412850885758758,-0.10592858285299753,-0.9159513570109942,-0.6977851543349408,-0.9667934535409527,-0.08530702176561732,-0.7544999170911479,-0.4139431394215947,-0.45720948839660547,-0.495331896869737,undefined,1488206320852
903d185fccf839df,0.009620802151572953,-0.7947088290539881,1.160775231240064,1.2041206754785714,-0.7180559964278476,-1.9908810271548139,2.039103492879866,-0.07012883810404029,-0.13007027121297107,0.39795357247523877,0.047673437677275,-0.04008827323223269,-0.6520443404634582,-0.7169342526307049,-0.9697061970064291,-0.13219643007732132,-0.909006969378431,-0.6847899549664357,-0.9625393925891037,-0.12347976631724832,-0.7520059239411261,-0.41943929674398356,-0.461502166373136,-0.5080633209327335,undefined,1488206322347
903d185fccf839df,-0.21768558578826883,-0.8164283547564871,1.1473771312664625,1.1383526547026608,-0.7916912953746419,-1.9872008296508725,1.9784575307821373,-0.4857453123044184,-0.18914730528111823,0.15548308049031678,0.06859386218101025,-0.015251247580130753,-0.6825075200534759,-0.7011950727174661,-0.9676008926314327,-0.22110325299282546,-0.9499865831615539,-0.6866391749078008,-0.95119756128327,-0.15302937993810473,-0.7555440656335615,-0.4263110936039334,-0.47701491736213414,-0.4843764040529093,undefined,1488206323837
903d185fccf839df,-0.22600173458838282,-0.806449143630412,1.0720916013692745,1.1098524495634463,-0.7420113779746553,-1.9682245173366169,1.9369039722086092,-0.7397163688417547,-0.2654584186272221,0.26295502065392,0.03208831645983403,-0.0958117568362019,-0.5345435049019608,-0.6863817436765965,-0.9886535609074731,-0.18675288252747302,-0.9655219844323696,-0.6700151981809702,-0.9463977492298496,-0.1947283685642469,-0.7568588817846953,-0.4303320446714996,-0.5048486693013094,-0.48790642607168494,undefined,1488206325344
903d185fccf839df,-0.23570372415966387,-0.7859035602401788,1.1231327204284196,1.1770151603064207,-0.7402730925404678,-1.9659977642801112,1.973658135794657,-0.4882672916216277,-0.25751325448079937,0.06568613929046388,0.03730780294676436,-0.07788240570911022,-0.6041736296791445,-0.7058242364238909,-1.0012851515659702,-0.2251444156868144,-0.9870978512041111,-0.6702685151197125,-0.9599715627710318,-0.16570229698634895,-0.7561090012038378,-0.44023261637620126,-0.5417915234598747,-0.5008728590843123,undefined,1488206326843
903d185fccf839df,-0.33549688866365646,-0.7201577927666064,1.382165618182461,1.4411032295014385,-0.7459610841330354,-1.9457310535687273,1.93495001618862,-0.7408292947668547,-0.17875185355819267,0.22581028093106945,0.08819962976940299,-0.06161795394915202,-0.6433405748663101,-0.6761975653913774,-0.9697061822819615,-0.24737111434951004,-0.9992030831210654,-0.6959106033054128,-0.9764490521225729,-0.18191685998743945,-0.7751465442359359,-0.4500734694642504,-0.5092051661818293,-0.516443929023329,undefined,1488206328338
903d185fccf839df,-0.20798349270075855,-0.7154617020096276,1.4938173831312893,1.5764856899421877,-0.7743598977273075,-1.947168194412139,1.9740262946617841,-0.4983785105527752,-0.14995355414482903,0.3216486296478507,0.1430636294800443,-0.0011667013230318558,-0.7434338792335116,-0.6854558928042273,-0.9497061588311855,-0.17462919659245546,-0.9903272612133771,-0.7023765379418467,-0.9801503655718171,-0.16280739228492896,-0.77359092657882,-0.43910753590625834,-0.5586080776629097,-0.5285855151515636,undefined,1488206329846
903d185fccf839df,-0.013941389412685102,-0.7348332261756257,1.355368909961359,1.4093832019042547,-0.8371746556748324,-1.9575915404597637,1.9267634222934633,-0.831483505255666,-0.21411238440672856,0.3920703090795479,0.15685479900853366,0.11001003849870057,-0.8609347147950089,-0.6391641974614928,-0.9318113882197693,-0.2473710860847885,-0.9312806378073816,-0.697645828400265,-0.9641066786720248,-0.2042138118342097,-0.7707548123807503,-0.44306067691418105,-0.5682238807334035,-0.5364213586338878,undefined,1488206331346
903d185fccf839df,0.19950490005040888,-0.6896330274782904,1.1837438745920017,1.2333472548196742,-0.7685793430515269,-1.9733721360977827,1.9657239915092708,-0.5768391801831096,-0.21138549862782255,0.3854338764837406,0.21796250528935565,-0.012751098692757814,-0.9305648395721926,-0.6373125475198522,-0.9244429627897239,-0.2837420166985942,-0.902561222730056,-0.7169486416092855,-0.9759172957438259,-0.18154730242586853,-0.7764391164774952,-0.4385882369343858,-0.5577824337940456,-0.5393677326174192,undefined,1488206332852
903d185fccf839df,0.30345589741659035,-0.6520639945285408,1.3362283314785863,1.4640307395500587,-0.6253612904940691,-1.9569812793253163,2.0005847039341456,-0.27619742687838184,-0.12843141048437637,0.4836781697020215,0.29405261170480246,-0.012911796790767016,-0.9305648395721926,-0.5836141747059085,-0.9244429554274901,-0.061475199659967,-0.8383287267473681,-0.690863244830375,-0.9635259438708597,-0.09733320546481054,-0.7433328458247102,-0.4230888399503454,-0.4688931904372948,-0.5115978213691501,undefined,1488206334343
903d185fccf839df,-0.03611770570036634,-0.6667394279375601,1.5914334185004126,1.6106130232180107,-0.6312035618167223,-1.9595201504669146,2.023353562749067,-0.13471778776640744,-0.14825641088478086,0.2936369025005214,0.2593326130548681,-0.05523283797112786,-0.9610280191622104,-0.5308416398135596,-0.8791797285730188,-0.06753702142893463,-0.812749371009954,-0.658799551993876,-0.9072435976192966,-0.06576639112870239,-0.7014881880704988,-0.42854735995575366,-0.5382450741275472,-0.5378666122044956,undefined,1488206335840
903d185fccf839df,0.02070894304270871,-0.6620432787245967,1.7585925052575526,1.7195344469488425,-0.5731613773796734,-1.9399824914961716,1.9810820652111596,-0.35040724344918633,-0.20022156592687296,-0.10720218553651524,0.1905936905474787,-0.01436329747672811,-0.9740836675579323,-0.5104733479969941,-0.8728639406060041,0.005204896328119941,-0.7989579505044274,-0.6244496663292752,-0.9034373321598289,0.002972269397369977,-0.6764853037179372,-0.42598646660066136,-0.4388215428039273,-0.5370071880277576,undefined,1488206337354
903d185fccf839df,-0.1996673784060543,-0.7324851807971363,1.607383561720124,1.6304937333484997,-0.7242994164927093,-1.9672881629110006,1.9254616685314367,-0.7925593023277985,-0.28524325429634717,-0.4441532936930963,0.0653624447302077,-0.014425179116501532,-0.9479723707664884,-0.5225091179453683,-0.9033903018759173,-0.08168125338004471,-0.8111104179994256,-0.6086109734668147,-0.9158216875522398,0.00024674293790005763,-0.6751187010433685,-0.412217582174301,-0.44093779775548864,-0.5362506627442188,undefined,1488206338853
903d185fccf839df,-0.1664029902380568,-0.6778927129018665,1.163327274486174,1.1922191319429594,-0.7001897446030516,-1.9751796248936482,1.9586550855603602,-0.5810204582216327,-0.255457053165397,-0.3412123875022606,0.023453596457536936,-0.061880107594636136,-0.9479723707664884,-0.5234349429161885,-0.8644428997996296,-0.23726808748947117,-0.8188860641037562,-0.5877945868240941,-0.893298952434891,-0.06479628996756114,-0.6749757018278956,-0.4075759503601866,-0.45094439548068477,-0.5210445017583993,undefined,1488206340361
903d185fccf839df,-0.18026322673644352,-0.7870775902364215,0.980218298646272,1.0220458154561887,-0.7544467909775399,-2.014942067533233,1.9687114655280817,-0.5862508454444548,-0.25730591094254446,-0.016765012382992626,0.019865384575475323,0.020631696733233815,-0.9740836675579323,-0.5734300093714639,-0.8823376704110458,-0.3524426728351345,-0.8294196608057451,-0.6269068493564331,-0.8986375190236886,-0.21739488403062737,-0.723601295343819,-0.40115729787606813,-0.5199166559120483,-0.5103849291910808,undefined,1488206341858
903d185fccf839df,-0.016713416009116605,-0.756552781106117,1.0484855825481834,1.1043973168262022,-0.5902459242636382,-1.999659928900282,1.9842878024422355,-0.41753213450434484,-0.18016922044768796,0.08507398770929679,0.025948764982544215,0.003367145701369944,-0.9784355503565063,-0.6160183465524319,-0.9381271909112515,-0.42114337136875707,-0.8814289463473229,-0.6377678475859871,-0.9419827628512492,-0.24549704897598443,-0.7531204524766616,-0.3807048932391132,-0.4971178059657701,-0.5096819172699364,undefined,1488206343364
903d185fccf839df,-0.05690787066819289,-0.7559657514939995,1.3413326721077552,1.416293860467406,-0.49365293679566624,-2.002555173589209,1.9998641404039113,-0.28105330244870286,-0.12429879461981368,0.44797247466554374,0.060678152699776715,0.07201028168233908,-0.9610280191622104,-0.6604583790027513,-0.948653514005921,-0.392854836804733,-0.9121892553601512,-0.6778553812964182,-0.9569279507309051,-0.33542397094771476,-0.7900262878606453,-0.3956748467152691,-0.5573115723642387,-0.5194070346388133,undefined,1488206344884
903d185fccf839df,-0.0000812219251178432,-0.7765113056562404,1.2169204367914288,1.2635922831304474,-0.5273797356503529,-1.9961963512502041,2.0318767657262002,-0.06061149537138741,-0.11566839611287459,0.3094098426132625,0.027305992523451575,-0.02576695009087412,-0.9784355503565063,-0.7086017631394499,-0.9728641093955209,-0.40497852273975055,-0.899458701897496,-0.6885263922565434,-0.9608041839321161,-0.34709599211135683,-0.8005642684997405,-0.4065036877079097,-0.5484492995852146,-0.5129024331335684,undefined,1488206346421
903d185fccf839df,-0.14422674296119503,-0.8111452197733946,1.017861063594866,1.0590664722969318,-0.5842082053522156,-2.009137604299322,2.0463670027138035,0.0027701110587866787,-0.12675670850657733,0.3379754687066262,0.04208467653183213,0.03573776690440246,-0.8696384803921569,-0.7206376107924714,-0.9749693548726469,-0.46761735710732316,-0.9652038723107244,-0.7067462718808001,-0.9720830430897879,-0.343708332686169,-0.8125225495309607,-0.4252975436375623,-0.5620374544740879,-0.5086895857948358,undefined,1488206347836
903d185fccf839df,-0.018099498318151826,-0.7900126944550209,0.7518104281194465,0.5947039407391754,-0.6845040429058151,-2.0081849455919545,2.0293416414723766,-0.13912799930354794,-0.14534814180051098,-0.11623265956321654,0.05065137328154131,-0.05157423454757044,-0.7129706996434938,-0.7335992704655385,-0.9591798812739933,-0.4231640021790142,-0.9577553826387958,-0.6480525494579448,-0.9820884826617875,-0.2907838768854276,-0.7769844847680207,-0.4215027041502149,-0.5346486669420111,-0.5031560738472441,undefined,1488206349349
903d185fccf839df,-0.08740023223975892,-0.7536176915015139,0.4506685626676442,0.488438117323847,-0.6949234543718794,-2.0031048746553033,2.0312982173443728,-0.12523330034054575,-0.22350436563282172,-0.10139601784079486,0.00481486326761578,-0.04773736313251444,-0.865286597593583,-0.6937884211478058,-0.9549693240596371,-0.39487546761499015,-0.9472007368282566,-0.6465453079048823,-0.9759802666563412,-0.30313342679469685,-0.7726819529301548,-0.430382018640692,-0.510961040477692,-0.4769589990123974,undefined,1488206350857
903d185fccf839df,-0.0818560755306667,-0.8287556843310324,0.8583581065760552,0.7425326155514909,-0.5916242019573061,-2.007411637778399,2.0503011918379834,0.026723160717467206,-0.2652527495968441,-0.43660857763867217,0.007787849753597152,-0.023542597565796634,-0.8696384803921569,-0.6271283757100204,-0.9233903326889271,-0.38679302916812613,-0.9569600747308131,-0.6346457064416194,-0.9606362609543235,-0.2545821263505205,-0.7537630445589708,-0.40230029031119224,-0.5046133768684659,-0.47219571029412805,undefined,1488206352340
903d185fccf839df,-0.3493569526349945,-0.8475402227269014,0.779244765946652,0.8586892193094854,-0.547436845095424,-2.0031421415368698,2.018438465836883,-0.19079443779739858,-0.30433675194047205,-0.2820381355563402,-0.035158760812180924,-0.019515821873033516,-0.9740836675579323,-0.6113892216983307,-0.8844429158881718,-0.3342572216605924,-0.9601695418480775,-0.6392814212799105,-0.9424235617652023,-0.25105588208753693,-0.7472776357224873,-0.40510873444250145,-0.49124867607190625,-0.5003076727354647,undefined,1488206353844
903d185fccf839df,-0.5239947662318183,-0.8058620994042983,0.8826025174140981,0.9550907976039205,-0.6091201703611527,-1.9744622195434447,1.9913356893425902,-0.37349493129229144,-0.263954374270803,-0.17051730196252515,0.06270976151161192,0.002646190667220377,-0.9175091911764707,-0.6447192185156743,-0.9233903547756285,-0.3362778383384888,-0.9501545260818562,-0.6771017611482986,-0.9500850696873978,-0.22349266382324698,-0.7602651840118125,-0.39409680054409396,-0.49895186196682534,-0.5142226414710666,undefined,1488206355347
903d185fccf839df,-0.6528941409875222,-0.8117322493855121,0.7830730849527661,0.8094967534406162,-0.6396172639506993,-1.968837107004014,2.028221351481994,-0.14322204627307308,-0.29044064225625627,-0.19439428888979557,0.14413724106082385,0.011002323410322997,-0.9305648395721926,-0.6021308683839318,-0.921285087211801,-0.37466939976255165,-0.9197625814595438,-0.6864808508397127,-0.9595377606924237,-0.25384300026905854,-0.7728710573008474,-0.38529705837323525,-0.4845691634693952,-0.49574453405590435,undefined,1488206357882
903d185fccf839df,-0.6958606912538494,-0.7976438894305988,0.7830725766788672,0.7719993714696438,-0.6042036082770512,-1.9575961984235615,2.058805999284894,0.10209612538297581,-0.2874012411459975,-0.40682385243620756,0.1983677178827081,-0.07028968391055604,-0.9001016599821747,-0.6178700353463961,-0.9349692932466273,-0.27363904636799846,-0.8956691321592842,-0.7128385622312347,-0.9631061342945827,-0.09750258062389175,-0.748690670191115,-0.4008475175751785,-0.5527200766855784,-0.5264756824535499,undefined,1488206358340
903d185fccf839df,-0.605769757859006,-0.7495086157426566,0.9298153174671291,0.9168503592154348,-0.6948617423142017,-1.9697198894037504,2.0621248091609714,0.09829371411668955,-0.27791068059014695,-0.767986455828407,0.26781719764798484,-0.15015146551697175,0.3314811720142603,-0.6854558928042273,-0.9760219923356775,0.23353353513571481,-0.750719827182162,-0.7449275885477364,-0.9708725939211489,0.2930481897898063,-0.6824851701169292,-0.42444357478598804,-0.5777756991079185,-0.5336878251690457,undefined,1488206359836
903d185fccf839df,-0.6404200903143998,-0.7230929115992019,1.0006346446151502,0.9570001170391467,-0.7984284317620961,-1.9722424557915441,2.0544352512630093,0.0028958462089747586,-0.2801167582178048,-0.8228961539655603,0.3267288860563116,-0.18143337008163135,0.9407447638146168,-0.7132309203704875,-1.0033904338542652,0.1527092354612393,-0.7666868855209097,-0.7711396430430316,-0.9868603063706303,0.22263109876393794,-0.7134511980466742,-0.4569693225713732,-0.5895266856471351,-0.5237978052244828,undefined,1488206361356
903d185fccf839df,-0.5641892208908945,-0.7166357173918743,0.987236290504599,0.978723978445646,-0.8411963578914866,-1.9932475349780043,2.0502091471454733,-0.0672349128585664,-0.2792451192465423,-0.7593031334444993,0.317987869696766,-0.27489603404656154,-0.15592970142602494,-0.767855105204477,-1.0476010085212382,0.21332749554799785,-0.707711016219825,-0.7939002428188984,-1.0012317572448446,0.20247453293432185,-0.7332219725506633,-0.46548958334376306,-0.5737896828974677,-0.47706503793833943,undefined,1488206362856
903d185fccf839df,-0.33688286745646245,-0.6714355040805428,1.0306210256884654,1.035622598785021,-0.8495380613865173,-1.9879228942936,2.017752087656632,-0.2802678126912282,-0.25537840831018843,-0.5857000527193317,0.3741090736269984,-0.33503774867841357,0.07907196969696971,-0.7669292931844313,-1.0412852205542236,0.07390552419993866,-0.6867224356719105,-0.7867440159208521,-1.0143367842798947,0.20376800126136288,-0.7344961348707936,-0.4848182213070856,-0.5720200088406628,-0.4659504752743689,undefined,1488206364342
903d185fccf839df,-0.0915583066398159,-0.7500956161267818,1.0102046797195872,1.1270173633961629,-0.9031985374007921,-1.9988190744894605,2.008479384930989,-0.34902578063845074,-0.24730153064668192,-0.4131843938089449,0.41533217185320703,-0.3192554271245795,1.1017644273618539,-0.7771134520434886,-1.0265483549696655,-0.19685590938751188,-0.8915824657032095,-0.788700894874913,-1.0088932652220937,-0.11444087492274597,-0.8097264350182576,-0.49411597883370983,-0.5325217739635973,-0.4802589854295663,undefined,1488206365853
903d185fccf839df,-0.15670100066677572,-0.8258206531824139,1.072091855506224,1.1119997944277713,-0.883151717443747,-1.9968671727121363,1.991046412009111,-0.45479222015277687,-0.25910928443643916,-0.38795970560476145,0.3740055583550709,-0.3964947822815179,0.6100016711229947,-0.7882234617749152,-1.0507589135480964,-0.27363904636799846,-0.9168175133120611,-0.8064204711347657,-1.0174783517946357,-0.13980211414198615,-0.8199251735524717,-0.488152162033745,-0.5620124567680573,-0.5140334137722467,undefined,1488206367738
903d185fccf839df,-0.11789259381132493,-0.684349892495198,1.0593313851387256,1.1390710118773415,-0.7875667333048523,-1.9501729130910632,1.9946439883849876,-0.3690494485561866,-0.3062300967609313,-0.3842839566742788,0.44258192577187205,-0.26338582875013045,0.19657280525846704,-0.7660034423120619,-1.037074678064335,-0.025104240781439715,-0.8297229202851173,-0.7916267132980649,-1.0363907318879133,-0.02231197519834741,-0.7886605854584378,-0.4603323104747393,-0.5520160829153129,-0.5248602872568539,undefined,1488206369203
903d185fccf839df,-0.22322967348654157,-0.7301370915766585,1.2315948125250347,1.2110131380055478,-0.89816883611417,-1.962669280856559,2.033804432091728,-0.14056218164603557,-0.30401677571140695,-0.48336725418106347,0.4112083725010474,-0.2492977916903771,-0.2908380681818182,-0.7363767648041611,-1.0307588827350864,0.03551404757004036,-0.7991739430210117,-0.7594173619929261,-1.03477446809827,0.06085502863012137,-0.7564398709221004,-0.46770266303093205,-0.5568727197046713,-0.5186438151065896,undefined,1488206371635
903d185fccf839df,-0.22600170008297307,-0.719570777768485,1.0771959419984436,1.1574260236351013,-0.9210030832594973,-1.9626180375457452,2.009326199454154,-0.3151486825254909,-0.2831409099566435,-0.3408854932100942,0.3911836968604848,-0.24513433045353525,-0.3125974821746881,-0.7363767648041611,-1.0349694178627413,-0.008939349755350927,-0.812745111473236,-0.7633057889900582,-1.0465011231275811,0.1017686983020654,-0.7546968245967961,-0.46109597180342826,-0.5720520334126372,-0.519769687504158,undefined,1488206372220
903d185fccf839df,-0.2634240591347984,-0.6285834092176814,0.8653763525713318,0.9178855337486578,-0.9745401333659504,-1.9350328574302094,1.9976445978033335,-0.37585734595072967,-0.25722068347331195,-0.3351620527788015,0.3053111398859769,-0.26098491855286826,0.4446301247771836,-0.6567550596933085,-1.043390488118051,-0.019042404880111323,-0.80232458793092,-0.7347252140909383,-1.0325144972186078,0.11907655169719383,-0.7335328125933587,-0.4554245838915259,-0.5759493876052553,-0.5478370409556439,undefined,1488206373722
903d185fccf839df,-0.5905234735569939,-0.5328998329979298,0.8111455606599737,0.8469281710907346,-1.0491628621772056,-1.8546741056481433,1.9391182635824338,-0.6424801425181906,-0.2847441692139366,-0.17280063076688584,0.028913753455184814,-0.2681099259518383,0.5925941399286988,-0.6252766933914435,-1.0612852366427659,0.009246143816273483,-0.8194946843934816,-0.6989630807958959,-1.0448988528618182,0.07947174867657629,-0.725838999714579,-0.45402117043230084,-0.6255338093641292,-0.531724051971216,undefined,1488206375183
903d185fccf839df,-0.4616241678121094,-0.5088321888469606,0.5999636008389652,0.6247136874391429,-0.9823058304148963,-1.7723750980365838,1.8955634156691366,-0.8194380386289843,-0.3009950546747633,-0.24981237044923157,-0.08186926008714661,-0.16556926497836497,-0.5693585672905526,-0.6465708684573148,-1.0233904536239242,-0.295865688501251,-0.9638018017058371,-0.6926174726485356,-1.017408383771508,-0.32718579863564556,-0.8034919096068981,-0.4526613173486477,-0.6168015764627163,-0.4872096460587935,undefined,1488206376690
903d185fccf839df,-0.21491349018101785,-0.5845572112885965,1.0299831419454126,0.9834253594701838,-0.7112262835596909,-1.9078692724159803,1.9882667071292324,-0.33610771370428805,-0.23846862203766686,-0.13055647979037363,-0.011176836468007066,-0.12014227888273749,-0.669451871657754,-0.6780492218084052,-0.9602324892880888,-0.34436029091771353,-1.0156264938411077,-0.6988744198335624,-0.9878678492961943,-0.38961109515558484,-0.8097307273551672,-0.42222917093305123,-0.6444400538597217,-0.5131843111914399,undefined,1488206378180
903d185fccf839df,-0.07354009925760138,-0.7137006570152634,0.9668201986726703,0.9633815473029322,-0.5595945393389834,-1.9557188322155867,1.9996169472585026,-0.28616097927323675,-0.10093441961534319,0.10076009382634109,0.04941207945273056,-0.0065052892416106395,-0.6955631684491979,-0.7011950468159169,-0.9476008986295918,-0.24130927844818165,-0.9918437689703818,-0.6950683195484333,-0.9536674379512105,-0.22110590652917292,-0.7689818364008425,-0.41595365738906864,-0.5892369915895797,-0.5473516300255644,undefined,1488206379683
903d185fccf839df,-0.11096238929860723,-0.7266150015879301,1.142273044774243,1.1723008795034755,-0.573706520961139,-1.9447597616905803,1.9749309549096918,-0.4262088560916582,-0.15661021507499293,0.040576244270394086,0.08378241730899913,-0.08562562264218371,-0.7608414104278075,-0.6937884081970314,-0.9718114498457889,-0.1645261697324166,-0.905832550806541,-0.6235060570403339,-0.9308578344381894,-0.1204616667018372,-0.7145989548023125,-0.415344497904353,-0.5730645945574657,-0.5796693318413391,undefined,1488206381194
903d185fccf839df,-0.08462817113791768,-0.7536177353435025,1.6475783699148279,1.6867138007210718,-0.6393806954134641,-1.9640598383607677,1.9579792244989205,-0.5438758280782592,-0.2612473787335083,-0.09403340792934814,0.05366588275157457,0.05382730079181214,-0.669451871657754,-0.6595325475565438,-0.9254956297016897,0.09209100363920229,-0.886858491960035,-0.5783901680709367,-0.8409628088084738,-0.034892504751019064,-0.6432372019819982,-0.470943169044747,-0.5547377657901853,-0.5960474183504317,undefined,1488206382938
903d185fccf839df,-0.15115680945227378,-0.759487856096724,1.1639656665031255,1.255074844751807,-0.6886594699647777,-1.98407033249815,1.9586734973271709,-0.58007138756384,-0.26904586424588556,-0.13143564529026042,0.06598295289183194,0.0849392074698289,-0.36917195855614976,-0.6206475361604059,-0.9002324189357607,0.059761292248828556,-0.9122203125923728,-0.5717722422048954,-0.8244923157723275,-0.05883708560258277,-0.6365304572411083,-0.4638088005235387,-0.5949236788395889,-0.6048660223266359,undefined,1488206384186
903d185fccf839df,-0.1262086045898,-0.7829685144775642,1.4159803182618904,1.3680074447643609,-0.6431863957477258,-1.9931893029130126,1.9102166837111372,-0.9082740586536513,-0.2516575182790854,-0.4399505320353669,0.17166367637438928,0.06558339844487783,0.205276570855615,-0.6604583854781386,-0.8907587112174203,-0.06955762397447024,-0.8616075418856421,-0.6399147147230264,-0.8248491528028338,-0.13378132155515643,-0.6793323693310793,-0.44546883360075723,-0.5558881262796274,-0.5689372724712943,undefined,1488206385712
903d185fccf839df,-0.1871932932275223,-0.7999919348090883,1.1671555934922881,1.2109972135261695,-0.7388948072648255,-2.015892397231972,1.9306739452815138,-0.8197470775205116,-0.21926841293559096,-0.2598718700707282,0.089018811074094,0.23026250666866527,-0.7608414104278075,-0.6558291958701646,-0.9539166939588403,-0.015001171524318551,-0.9229287735248144,-0.662440995494243,-0.8945723725772159,-0.104462683956341,-0.7180280897974782,-0.39888695189587575,-0.5548603652668778,-0.5565662539520575,undefined,1488206387198
903d185fccf839df,-0.04859172186807891,-0.8410830431335701,0.9036570012629785,1.0124346123837749,-0.6693943552046302,-2.026986563398759,1.9925927291130823,-0.40971365685787,-0.20290516076802956,-0.33291141783628414,0.12389490381190572,0.08117267230761631,-0.5867660984848485,-0.6567550337917594,-0.9454956237035306,-0.14432013014469966,-0.9333649439599216,-0.6717567546526233,-0.8942155350328764,-0.22296912118794698,-0.7421001236292034,-0.3823094353848417,-0.5549603980111192,-0.524291080544636,undefined,1488206388751
903d185fccf839df,-0.1774911656346023,-0.8956754671868514,0.807317495790809,0.8001310283401495,-0.8006501425224575,-2.050251005279353,1.97356345344227,-0.5918243276509042,-0.20657244145441506,-0.24668823303071025,0.09087330995156921,0.11537269662018207,-0.7869527072192514,-0.6512000451145142,-0.9876009308066763,-0.25949477201980603,-0.921527057311465,-0.7060686445708462,-0.9191731594605692,-0.26671610662595713,-0.7743991932022303,-0.38390596033553703,-0.5821056819883966,-0.5151850467649598,undefined,1488206390243
903d185fccf839df,-0.22461568678475732,-0.8399090131373272,0.9011047038799193,0.9151646802635607,-0.8152969745650961,-2.023343633867272,1.923605036713799,-0.9111364714204698,-0.17437633798947094,-0.15990825435679756,0.135105396496818,0.11593712145968038,-0.7782489416221035,-0.6604584049043004,-0.9770746077120068,-0.31000993458472187,-0.9294117038642485,-0.6975635008577621,-0.9333417012962117,-0.28497866249445913,-0.7798373151714257,-0.3744284763539823,-0.5923172059728653,-0.4954583444246103,undefined,1488206391745
903d185fccf839df,-0.43806183822621236,-0.8217115189675719,0.8034891767846949,0.9166458681347901,-0.9594715898792905,-1.9920316710756472,1.9384634388536597,-0.8318658378716668,-0.17883039982364446,-0.13607329198659576,0.2490911010224091,0.05164690638791348,-0.4300983177361854,-0.6308317014948505,-0.990758813746833,-0.32011301797420383,-0.9269543978737064,-0.6893623396980161,-0.9596147263032951,-0.3428922158583298,-0.7895811027538079,-0.40307648045881,-0.5931676325942146,-0.4822616784692899,undefined,1488206393201
903d185fccf839df,-0.42974582744773737,-0.7671190949142905,0.9444899473376844,1.0031862323174066,-0.8948876941556996,-1.9693681725626186,1.9266372001073824,-0.8723756691260349,-0.16981842660995558,0.013095320801165333,0.29017583031414157,-0.020734925421533996,-0.5606548016934046,-0.6326833773380401,-0.9823377655782247,-0.3160717704860503,-0.9249146073165676,-0.6956066222192911,-0.9392470093029864,-0.34709599029394506,-0.7845093420936602,-0.41021982301871784,-0.5991433521014647,-0.507757204545826,undefined,1488206394715
903d185fccf839df,-0.18996528531854406,-0.790599694839146,0.847511795711614,0.8911105137654219,-0.887646564032772,-1.978973955169097,1.9869675784568215,-0.4850591933188975,-0.1970115510285201,-0.000829963029469327,0.2562972101144513,-0.11413842721094111,-0.2908380681818182,-0.6345350402304551,-0.9781272157261023,-0.4130609046571715,-0.9202560076602208,-0.7074302281369588,-0.9456700817183614,-0.34734236443833705,-0.7939995959480496,-0.4202496515153485,-0.6083348501051262,-0.4981892143993144,undefined,1488206396204
903d185fccf839df,-0.07492611255581715,-0.8498882681053909,0.8794123362879862,0.8834892662266294,-0.9292830665927396,-2.002177836524687,1.9871832244358842,-0.5148065335553363,-0.22783919879377768,-0.13791210364959292,0.1403546388294816,-0.08585793239271014,-0.6955631684491979,-0.5789850109994836,-0.9528640564958096,-0.3989166727060614,-0.9005506233557822,-0.6952899752181316,-0.9457750334043808,-0.3573513512859613,-0.7898687437444821,-0.4169045500579094,-0.6004215157186351,-0.4900223420744428,undefined,1488206397719
903d185fccf839df,0.020708977548118443,-0.8686727480452753,0.9578877931743366,1.0098728758176485,-0.9446190445280472,-2.013835679868337,1.9704602905927764,-0.6338286034355959,-0.20543878544547464,-0.24854729480517426,0.09599739904558284,-0.018315327539903503,-0.8391753008021391,-0.5845400191028907,-0.9791798752758342,-0.35244268696749526,-0.8650412821298067,-0.6832510490825529,-0.9622875066451446,-0.3460180958279014,-0.7900088799123265,-0.415190413787566,-0.579893906621502,-0.4837412683527744,undefined,1488206399205
903d185fccf839df,-0.05413591308258086,-0.805275099020173,1.252649296373915,1.2099268923366093,-0.9213630800051533,-2.0031700934720957,1.9667759280837949,-0.6340836306873096,-0.2021320116945555,-0.16255284588773508,0.06125204123973922,0.04264157235280922,-0.852230949197861,-0.590095014255523,-0.9991798840021426,-0.40295794845893645,-0.875688107525828,-0.6918701848682801,-0.9738392412740804,-0.3445090475952861,-0.799339839503438,-0.4096644827263424,-0.5698371082660398,-0.5019848315630485,undefined,1488206400702
903d185fccf839df,-0.20798345819534883,-0.7712281560591517,1.0261553312131975,1.147761637822458,-0.8567689012192101,-1.993040231041317,1.9790571217817614,-0.5340999675342951,-0.1866524560056683,-0.140291050387545,0.12861406519227947,-0.03446526315644658,-0.8609347147950089,-0.5641716625324523,-0.9897061836460361,-0.41104037277343974,-0.8412871005376752,-0.6747649033035611,-0.9869652582829808,-0.3363786690593,-0.7971586479761387,-0.3866585536956102,-0.5546557416658068,-0.4668928122264125,undefined,1488206402216
903d185fccf839df,-0.18857923751491856,-0.7606618714789706,0.9757520958971051,1.092075263026199,-0.8165723983531772,-1.9924858712177231,1.967754214972271,-0.5941507211361093,-0.21337076895630228,-0.11381686703362824,0.11679562201590027,-0.02000248105257003,-0.7173225824420678,-0.5604683108460732,-0.990758850558002,-0.3989167292355045,-0.8938791863969314,-0.6901982877208386,-0.9950675649478519,-0.3472191735495762,-0.8054041258308822,-0.3831183250132568,-0.5829912709878546,-0.46727784310162296,undefined,1488206403730
903d185fccf839df,-0.19966741291146406,-0.8005789351932134,0.936195171445454,1.0159153972862693,-0.7780010368075319,-2.015873762720235,1.9512732141438835,-0.7260778839188692,-0.24889650327019633,0.014509450774852219,0.11498994557584484,0.00457089130399418,-0.678155637254902,-0.6382383724906725,-1.0076009616196862,-0.3524427434969383,-0.9541933327757955,-0.713351529600527,-1.003659648857338,-0.3374411623066615,-0.8181805546449884,-0.3851837129404143,-0.5724969057575442,-0.47261335399553467,undefined,1488206405206
903d185fccf839df,-0.18996528531854406,-0.8352128639243638,1.1193049096962044,1.054134366700491,-0.7872890236438969,-2.009552207614345,1.9778973695503579,-0.5254806658474662,-0.20475689681780287,-0.1672284926649865,0.03605184455682297,-0.0655127404593565,-0.8696384803921569,-0.6363866901720957,-0.988653601399759,-0.34840152427350635,-0.9655541715545632,-0.7279552977870328,-0.9972225831321796,-0.35196189632212277,-0.8241457883129694,-0.3744572392749879,-0.6062646251752497,-0.4892763037764046,undefined,1488206406698
903d185fccf839df,-0.31609256446699696,-0.8264076243385469,1.083576050113718,1.1028834643465286,-0.8836557169287179,-2.0111314328124896,2.0239847271030817,-0.23311088657002155,-0.22745625300975283,-0.19585980384786786,0.023627153824528534,0.11307768316665506,-0.7608414104278075,-0.6660134000569328,-1.0002325472329916,-0.3888136317136618,-0.9635746179348007,-0.7509058859119779,-0.9930734753038594,-0.37070180665153457,-0.8374851385832243,-0.3728613328502773,-0.6206630421287088,-0.47682623560981763,undefined,1488206408257
903d185fccf839df,-0.1567008626451368,-0.8129062939957511,1.0886801366059375,1.1503656473073811,-0.8543414814613669,-1.994975829809441,2.096299142358074,0.27477756568828093,-0.208089736258913,-0.21410853995807924,0.026604288069730322,0.007237458547883179,-0.6955631684491979,-0.7252667421219599,-0.9633904053582975,-0.4069991535500077,-0.9658298383194064,-0.7555289350013307,-0.9814657663286026,-0.36295638874013786,-0.8361671642111457,-0.37547356644594054,-0.607797751918006,-0.4732771708033731,undefined,1488206409706
903d185fccf839df,-0.10819039720758546,-0.7577268403303522,1.0842141879937202,1.1717019379434666,-0.8450432065693493,-2.0056018195009466,2.0436241245101123,-0.07194542136447911,-0.20608518716472654,-0.10365765867479983,0.06585588783093732,-0.024382811875070246,-0.5084322081105169,-0.6724942137049982,-0.9623377494896824,-0.3908342766562797,-0.9282778116167435,-0.717106965306417,-0.9709355663506953,-0.3853919254381659,-0.81680057273504,-0.3768831013381801,-0.6052974542164402,-0.512200992553559,undefined,1488206411242
903d185fccf839df,-0.019485494363662714,-0.8246465939581789,1.1008024690934337,1.1098131342274022,-0.8985596877203604,-2.002026436719395,2.048773280739453,-0.05949184425567823,-0.18337696908685786,-0.44875075526481834,0.10406252508443091,-0.05989611362036479,-0.673803754456328,-0.6299058765240303,-0.9444429715160324,-0.400937275251597,-0.8844919549345426,-0.6815284883967656,-0.9554866075373831,-0.3469266076228952,-0.7872367837811092,-0.3880446071450964,-0.6031150628274277,-0.5068575596143273,undefined,1488206412705
903d185fccf839df,-0.20105335719886033,-0.8493012677212656,1.202884198937825,1.245589107515167,-0.8337083652781351,-1.9852279636179215,2.0122005625934185,-0.28392047596445835,-0.1534101216624344,-0.30838421782289954,0.08989425845420092,0.0010555318797508535,-0.7782489416221035,-0.5937983659419023,-0.9402324511128451,-0.4837821916039689,-0.8522833240320254,-0.6507313827011852,-0.9403035283264854,-0.40425501975017375,-0.7760166474918526,-0.39663686674303994,-0.6114189779679997,-0.5249890338956253,undefined,1488206414202
903d185fccf839df,-0.349357021645814,-0.8416700142897029,0.9783043932801643,1.0763674608733187,-0.96960299381419,-1.9828241887016014,1.9905283297277936,-0.4733157273839799,-0.1717364785843001,-0.19150594646662877,0.06792036738110896,0.09541146257374579,-0.7216744652406417,-0.5576907906059014,-0.9476008765428905,-0.4332670007743315,-0.8675859363287304,-0.6366089173981246,-0.9387572326700774,-0.3888411740275668,-0.7633884276531404,-0.39563551361242366,-0.6188759270390544,-0.5372291653179748,undefined,1488206417442
903d185fccf839df,-0.3341107718492115,-0.8287556843310324,1.0063768689873718,1.0870553277218513,-0.8930362693409452,-1.981251951544118,2.016705423783057,-0.2731387491636499,-0.24138998037552942,-0.2300531763191032,0.08462012196970693,0.07675461518779589,-0.9436204879679144,-0.5604683432230095,-0.9633903869527131,-0.4373082341301243,-0.9142043899442736,-0.6439867970535829,-0.956466161078469,-0.3707480017051648,-0.7696710939212197,-0.40093128898688085,-0.6083655219382008,-0.5464080914254704,undefined,1488206418736
